drive id,wheel_velocity1,wheel_velocity2,wheel_current1,wheel_current2,pivot_angle,pivot_velocity,imu_ang_vel_x,imu_ang_vel_y,imu_ang_vel_z,imu_lin_acc_x,imu_lin_acc_y,imu_lin_acc_z
0,5E-06,0.007842,0.092335,-0.045324,1.550028,0.000184,-0.062851,-0.002131,-0.030893,0.105381,0.143701,-0.0479
1,0.007842,-8.2E-05,-0.045324,-0.035783,1.527366,0.000114,-0.002131,-0.030893,0.022371,0.143701,-0.0479,0.249082
2,-8.2E-05,2E-06,-0.035783,0.019224,1.551861,0.001905,-0.030893,0.022371,0.013848,-0.0479,0.249082,-0.03832
3,2E-06,-0.003107,0.019224,0.123286,1.573709,-0.000431,0.022371,0.013848,-0.027697,0.249082,-0.03832,9.608819
0,5E-06,0.007842,0.092335,-0.045324,1.550016,0.000184,-0.062851,-0.002131,-0.030893,0.105381,0.143701,-0.0479
1,0.007842,-8.2E-05,-0.045324,-0.035783,1.52739,0.000114,-0.002131,-0.030893,0.022371,0.143701,-0.0479,0.249082
2,-8.2E-05,2E-06,-0.035783,0.019224,1.551861,0.001905,-0.030893,0.022371,0.013848,-0.0479,0.249082,-0.03832
3,2E-06,-0.003107,0.019224,0.123286,1.573709,-0.000431,0.022371,0.013848,-0.027697,0.249082,-0.03832,9.608819
0,5E-06,0.007842,0.092335,-0.045324,1.549788,0.000184,-0.062851,-0.002131,-0.030893,0.105381,0.143701,-0.0479
1,0.007842,-8.2E-05,-0.045324,-0.035783,1.52739,0.000114,-0.002131,-0.030893,0.022371,0.143701,-0.0479,0.249082
2,-8.2E-05,2E-06,-0.035783,0.019224,1.551646,0.001905,-0.030893,0.022371,0.013848,-0.0479,0.249082,-0.03832
3,2E-06,-0.003107,0.019224,0.123286,1.573709,-0.000431,0.022371,0.013848,-0.027697,0.249082,-0.03832,9.608819
0,5E-06,0.007842,0.092335,-0.045324,1.548398,0.000184,-0.062851,-0.002131,-0.030893,0.105381,0.143701,-0.0479
1,0.007842,-8.2E-05,-0.045324,-0.035783,1.528204,0.000114,-0.002131,-0.030893,0.022371,0.143701,-0.0479,0.249082
2,-8.2E-05,2E-06,-0.035783,0.019224,1.551838,0.001905,-0.030893,0.022371,0.013848,-0.0479,0.249082,-0.03832
3,2E-06,-0.003107,0.019224,0.123286,1.573469,-0.000431,0.022371,0.013848,-0.027697,0.249082,-0.03832,9.608819
0,5E-06,0.007842,0.092335,-0.045324,1.545773,0.000184,-0.062851,-0.002131,-0.030893,0.105381,0.143701,-0.0479
1,0.007842,-8.2E-05,-0.045324,-0.035783,1.528768,0.000114,-0.002131,-0.030893,0.022371,0.143701,-0.0479,0.249082
2,-8.2E-05,2E-06,-0.035783,0.019224,1.552628,0.001905,-0.030893,0.022371,0.013848,-0.0479,0.249082,-0.03832
3,2E-06,-0.003107,0.019224,0.123286,1.573972,-0.000431,0.022371,0.013848,-0.027697,0.249082,-0.03832,9.608819
0,5E-06,0.007842,0.092335,-0.045324,1.542118,0.000184,-0.062851,-0.002131,-0.030893,0.105381,0.143701,-0.0479
1,0.007842,-8.2E-05,-0.045324,-0.035783,1.528816,0.000114,-0.002131,-0.030893,0.022371,0.143701,-0.0479,0.249082
2,-8.2E-05,2E-06,-0.035783,0.019224,1.555049,0.001905,-0.030893,0.022371,0.013848,-0.0479,0.249082,-0.03832
3,2E-06,-0.003107,0.019224,0.123286,1.57444,-0.000431,0.022371,0.013848,-0.027697,0.249082,-0.03832,9.608819
0,5E-06,0.007842,0.092335,-0.045324,1.540464,0.000184,-0.062851,-0.002131,-0.030893,0.105381,0.143701,-0.0479
1,0.007842,-8.2E-05,-0.045324,-0.035783,1.528456,0.000114,-0.002131,-0.030893,0.022371,0.143701,-0.0479,0.249082
2,-8.2E-05,2E-06,-0.035783,0.019224,1.556535,0.001905,-0.030893,0.022371,0.013848,-0.0479,0.249082,-0.03832
3,2E-06,-0.003107,0.019224,0.123286,1.574643,-0.000431,0.022371,0.013848,-0.027697,0.249082,-0.03832,9.608819
0,5E-06,0.007842,0.092335,-0.045324,1.541339,0.000184,-0.062851,-0.002131,-0.030893,0.105381,0.143701,-0.0479
1,0.007842,-8.2E-05,-0.045324,-0.035783,1.527965,0.000114,-0.002131,-0.030893,0.022371,0.143701,-0.0479,0.249082
2,-8.2E-05,2E-06,-0.035783,0.019224,1.556943,0.001905,-0.030893,0.022371,0.013848,-0.0479,0.249082,-0.03832
3,2E-06,-0.003107,0.019224,0.123286,1.574775,-0.000431,0.022371,0.013848,-0.027697,0.249082,-0.03832,9.608819
0,5E-06,0.007842,0.092335,-0.045324,1.543305,0.000184,-0.062851,-0.002131,-0.030893,0.105381,0.143701,-0.0479
1,0.007842,-8.2E-05,-0.045324,-0.035783,1.527162,0.000114,-0.002131,-0.030893,0.022371,0.143701,-0.0479,0.249082
2,-8.2E-05,2E-06,-0.035783,0.019224,1.556751,0.001905,-0.030893,0.022371,0.013848,-0.0479,0.249082,-0.03832
3,2E-06,-0.003107,0.019224,0.123286,1.575267,-0.000431,0.022371,0.013848,-0.027697,0.249082,-0.03832,9.608819
0,5E-06,0.007842,0.092335,-0.045324,1.544814,0.000184,-0.062851,-0.002131,-0.030893,0.105381,0.143701,-0.0479
1,0.007842,-8.2E-05,-0.045324,-0.035783,1.526167,0.000114,-0.002131,-0.030893,0.022371,0.143701,-0.0479,0.249082
2,-8.2E-05,2E-06,-0.035783,0.019224,1.557997,0.001905,-0.030893,0.022371,0.013848,-0.0479,0.249082,-0.03832
3,2E-06,-0.003107,0.019224,0.123286,1.576729,-0.000431,0.022371,0.013848,-0.027697,0.249082,-0.03832,9.608819
0,5E-06,0.007842,0.092335,-0.045324,1.543616,0.000184,-0.062851,-0.002131,-0.030893,0.105381,0.143701,-0.0479
1,0.007842,-8.2E-05,-0.045324,-0.035783,1.525089,0.000114,-0.002131,-0.030893,0.022371,0.143701,-0.0479,0.249082
2,-8.2E-05,2E-06,-0.035783,0.019224,1.560155,0.001905,-0.030893,0.022371,0.013848,-0.0479,0.249082,-0.03832
3,2E-06,-0.003107,0.019224,0.123286,1.57915,-0.000431,0.022371,0.013848,-0.027697,0.249082,-0.03832,9.608819
0,5E-06,0.007842,0.092335,-0.045324,1.541411,0.000184,-0.062851,-0.002131,-0.030893,0.105381,0.143701,-0.0479
1,0.007842,-8.2E-05,-0.045324,-0.035783,1.523926,0.000114,-0.002131,-0.030893,0.022371,0.143701,-0.0479,0.249082
2,-8.2E-05,2E-06,-0.035783,0.019224,1.562444,0.001905,-0.030893,0.022371,0.013848,-0.0479,0.249082,-0.03832
3,2E-06,-0.003107,0.019224,0.123286,1.582673,-0.000431,0.022371,0.013848,-0.027697,0.249082,-0.03832,9.608819
0,5E-06,0.007842,0.092335,-0.045324,1.540884,0.000184,-0.062851,-0.002131,-0.030893,0.105381,0.143701,-0.0479
1,0.007842,-8.2E-05,-0.045324,-0.035783,1.522057,0.000114,-0.002131,-0.030893,0.022371,0.143701,-0.0479,0.249082
2,-8.2E-05,2E-06,-0.035783,0.019224,1.565224,0.001905,-0.030893,0.022371,0.013848,-0.0479,0.249082,-0.03832
3,2E-06,-0.003107,0.019224,0.123286,1.587503,-0.000431,0.022371,0.013848,-0.027697,0.249082,-0.03832,9.608819
0,5E-06,0.007842,0.092335,-0.045324,1.541746,0.000184,-0.062851,-0.002131,-0.030893,0.105381,0.143701,-0.0479
1,0.007842,-8.2E-05,-0.045324,-0.035783,1.519336,0.000114,-0.002131,-0.030893,0.022371,0.143701,-0.0479,0.249082
2,-8.2E-05,2E-06,-0.035783,0.019224,1.569634,0.001905,-0.030893,0.022371,0.013848,-0.0479,0.249082,-0.03832
3,2E-06,-0.003107,0.019224,0.123286,1.594597,-0.000431,0.022371,0.013848,-0.027697,0.249082,-0.03832,9.608819
0,5E-06,0.007842,0.092335,-0.045324,1.54358,0.000184,-0.062851,-0.002131,-0.030893,0.105381,0.143701,-0.0479
1,0.007842,-8.2E-05,-0.045324,-0.035783,1.515094,0.000114,-0.002131,-0.030893,0.022371,0.143701,-0.0479,0.249082
2,-8.2E-05,2E-06,-0.035783,0.019224,1.575339,0.001905,-0.030893,0.022371,0.013848,-0.0479,0.249082,-0.03832
3,2E-06,-0.003107,0.019224,0.123286,1.603681,-0.000431,0.022371,0.013848,-0.027697,0.249082,-0.03832,9.608819
0,5E-06,0.007842,0.092335,-0.045324,1.54533,0.000184,-0.062851,-0.002131,-0.030893,0.105381,0.143701,-0.0479
1,0.007842,-8.2E-05,-0.045324,-0.035783,1.509413,0.000114,-0.002131,-0.030893,0.022371,0.143701,-0.0479,0.249082
2,-8.2E-05,2E-06,-0.035783,0.019224,1.581762,0.001905,-0.030893,0.022371,0.013848,-0.0479,0.249082,-0.03832
3,2E-06,-0.003107,0.019224,0.123286,1.614491,-0.000431,0.022371,0.013848,-0.027697,0.249082,-0.03832,9.608819
0,5E-06,0.007842,0.092335,-0.045324,1.546612,0.000184,-0.062851,-0.002131,-0.030893,0.105381,0.143701,-0.0479
1,0.007842,-8.2E-05,-0.045324,-0.035783,1.502954,0.000114,-0.002131,-0.030893,0.022371,0.143701,-0.0479,0.249082
2,-8.2E-05,2E-06,-0.035783,0.019224,1.590187,0.001905,-0.030893,0.022371,0.013848,-0.0479,0.249082,-0.03832
3,2E-06,-0.003107,0.019224,0.123286,1.627506,-0.000431,0.022371,0.013848,-0.027697,0.249082,-0.03832,9.608819
0,5E-06,0.007842,0.092335,-0.045324,1.547415,0.000184,-0.062851,-0.002131,-0.030893,0.105381,0.143701,-0.0479
1,0.007842,-8.2E-05,-0.045324,-0.035783,1.495883,0.000114,-0.002131,-0.030893,0.022371,0.143701,-0.0479,0.249082
2,-8.2E-05,2E-06,-0.035783,0.019224,1.600314,0.001905,-0.030893,0.022371,0.013848,-0.0479,0.249082,-0.03832
3,2E-06,-0.003107,0.019224,0.123286,1.64269,-0.000431,0.022371,0.013848,-0.027697,0.249082,-0.03832,9.608819
0,5E-06,0.007842,0.092335,-0.045324,1.548362,0.000184,-0.062851,-0.002131,-0.030893,0.105381,0.143701,-0.0479
1,0.007842,-8.2E-05,-0.045324,-0.035783,1.48741,0.000114,-0.002131,-0.030893,0.022371,0.143701,-0.0479,0.249082
2,-8.2E-05,2E-06,-0.035783,0.019224,1.611267,0.001905,-0.030893,0.022371,0.013848,-0.0479,0.249082,-0.03832
3,2E-06,-0.003107,0.019224,0.123286,1.659144,-0.000431,0.022371,0.013848,-0.027697,0.249082,-0.03832,9.608819
0,5E-06,0.007842,0.092335,-0.045324,1.550914,0.000184,-0.062851,-0.002131,-0.030893,0.105381,0.143701,-0.0479
1,0.007842,-8.2E-05,-0.045324,-0.035783,1.48173,0.000114,-0.002131,-0.030893,0.022371,0.143701,-0.0479,0.249082
2,-8.2E-05,2E-06,-0.035783,0.019224,1.622377,0.001905,-0.030893,0.022371,0.013848,-0.0479,0.249082,-0.03832
3,2E-06,-0.003107,0.019224,0.123286,1.676713,-0.000431,0.022371,0.013848,-0.027697,0.249082,-0.03832,9.608819
0,5E-06,0.007842,0.092335,-0.045324,1.554857,0.000184,-0.062851,-0.002131,-0.030893,0.105381,0.143701,-0.0479
1,0.007842,-8.2E-05,-0.045324,-0.035783,1.482437,0.000114,-0.002131,-0.030893,0.022371,0.143701,-0.0479,0.249082
2,-8.2E-05,2E-06,-0.035783,0.019224,1.634625,0.001905,-0.030893,0.022371,0.013848,-0.0479,0.249082,-0.03832
3,2E-06,-0.003107,0.019224,0.123286,1.69415,-0.000431,0.022371,0.013848,-0.027697,0.249082,-0.03832,9.608819
0,5E-06,0.007842,0.092335,-0.045324,1.558872,0.000184,-0.062851,-0.002131,-0.030893,0.105381,0.143701,-0.0479
1,0.007842,-8.2E-05,-0.045324,-0.035783,1.488692,0.000114,-0.002131,-0.030893,0.022371,0.143701,-0.0479,0.249082
2,-8.2E-05,2E-06,-0.035783,0.019224,1.648418,0.001905,-0.030893,0.022371,0.013848,-0.0479,0.249082,-0.03832
3,2E-06,-0.003107,0.019224,0.123286,1.710449,-0.000431,0.022371,0.013848,-0.027697,0.249082,-0.03832,9.608819
0,5E-06,0.007842,0.092335,-0.045324,1.563798,0.000184,-0.062851,-0.002131,-0.030893,0.105381,0.143701,-0.0479
1,0.007842,-8.2E-05,-0.045324,-0.035783,1.499874,0.000114,-0.002131,-0.030893,0.022371,0.143701,-0.0479,0.249082
2,-8.2E-05,2E-06,-0.035783,0.019224,1.663183,0.001905,-0.030893,0.022371,0.013848,-0.0479,0.249082,-0.03832
3,2E-06,-0.003107,0.019224,0.123286,1.725884,-0.000431,0.022371,0.013848,-0.027697,0.249082,-0.03832,9.608819
0,5E-06,0.007842,0.092335,-0.045324,1.571647,0.000184,-0.062851,-0.002131,-0.030893,0.105381,0.143701,-0.0479
1,0.007842,-8.2E-05,-0.045324,-0.035783,1.525136,0.000114,-0.002131,-0.030893,0.022371,0.143701,-0.0479,0.249082
2,-8.2E-05,2E-06,-0.035783,0.019224,1.677073,0.001905,-0.030893,0.022371,0.013848,-0.0479,0.249082,-0.03832
3,2E-06,-0.003107,0.019224,0.123286,1.740901,-0.000431,0.022371,0.013848,-0.027697,0.249082,-0.03832,9.608819
0,5E-06,0.007842,0.092335,-0.045324,1.58024,0.000184,-0.062851,-0.002131,-0.030893,0.105381,0.143701,-0.0479
1,0.007842,-8.2E-05,-0.045324,-0.035783,1.55028,0.000114,-0.002131,-0.030893,0.022371,0.143701,-0.0479,0.249082
2,-8.2E-05,2E-06,-0.035783,0.019224,1.690171,0.001905,-0.030893,0.022371,0.013848,-0.0479,0.249082,-0.03832
3,2E-06,-0.003107,0.019224,0.123286,1.753939,-0.000431,0.022371,0.013848,-0.027697,0.249082,-0.03832,9.608819
0,5E-06,0.007842,0.092335,-0.045324,1.587598,0.000184,-0.062851,-0.002131,-0.030893,0.105381,0.143701,-0.0479
1,0.007842,-8.2E-05,-0.045324,-0.035783,1.569298,0.000114,-0.002131,-0.030893,0.022371,0.143701,-0.0479,0.249082
2,-8.2E-05,2E-06,-0.035783,0.019224,1.701149,0.001905,-0.030893,0.022371,0.013848,-0.0479,0.249082,-0.03832
3,2E-06,-0.003107,0.019224,0.123286,1.763683,-0.000431,0.022371,0.013848,-0.027697,0.249082,-0.03832,9.608819
0,5E-06,0.007842,0.092335,-0.045324,1.595496,0.000184,-0.062851,-0.002131,-0.030893,0.105381,0.143701,-0.0479
1,0.007842,-8.2E-05,-0.045324,-0.035783,1.584686,0.000114,-0.002131,-0.030893,0.022371,0.143701,-0.0479,0.249082
2,-8.2E-05,2E-06,-0.035783,0.019224,1.708399,0.001905,-0.030893,0.022371,0.013848,-0.0479,0.249082,-0.03832
3,2E-06,-0.003107,0.019224,0.123286,1.770034,-0.000431,0.022371,0.013848,-0.027697,0.249082,-0.03832,9.608819
0,5E-06,0.007842,0.092335,-0.045324,1.604867,0.000184,-0.062851,-0.002131,-0.030893,0.105381,0.143701,-0.0479
1,0.007842,-8.2E-05,-0.045324,-0.035783,1.599259,0.000114,-0.002131,-0.030893,0.022371,0.143701,-0.0479,0.249082
2,-8.2E-05,2E-06,-0.035783,0.019224,1.713037,0.001905,-0.030893,0.022371,0.013848,-0.0479,0.249082,-0.03832
3,2E-06,-0.003107,0.019224,0.123286,1.77327,-0.000431,0.022371,0.013848,-0.027697,0.249082,-0.03832,9.608819
0,5E-06,0.007842,0.092335,-0.045324,1.614623,0.000184,-0.062851,-0.002131,-0.030893,0.105381,0.143701,-0.0479
1,0.007842,-8.2E-05,-0.045324,-0.035783,1.610788,0.000114,-0.002131,-0.030893,0.022371,0.143701,-0.0479,0.249082
2,-8.2E-05,2E-06,-0.035783,0.019224,1.714104,0.001905,-0.030893,0.022371,0.013848,-0.0479,0.249082,-0.03832
3,2E-06,-0.003107,0.019224,0.123286,1.772263,-0.000431,0.022371,0.013848,-0.027697,0.249082,-0.03832,9.608819
0,5E-06,0.007842,0.092335,-0.045324,1.623851,0.000184,-0.062851,-0.002131,-0.030893,0.105381,0.143701,-0.0479
1,0.007842,-8.2E-05,-0.045324,-0.035783,1.61841,0.000114,-0.002131,-0.030893,0.022371,0.143701,-0.0479,0.249082
2,-8.2E-05,2E-06,-0.035783,0.019224,1.711959,0.001905,-0.030893,0.022371,0.013848,-0.0479,0.249082,-0.03832
3,2E-06,-0.003107,0.019224,0.123286,1.768356,-0.000431,0.022371,0.013848,-0.027697,0.249082,-0.03832,9.608819
0,5E-06,0.007842,0.092335,-0.045324,1.630909,0.000184,-0.062851,-0.002131,-0.030893,0.105381,0.143701,-0.0479
1,0.007842,-8.2E-05,-0.045324,-0.035783,1.622293,0.000114,-0.002131,-0.030893,0.022371,0.143701,-0.0479,0.249082
2,-8.2E-05,2E-06,-0.035783,0.019224,1.707213,0.001905,-0.030893,0.022371,0.013848,-0.0479,0.249082,-0.03832
3,2E-06,-0.003107,0.019224,0.123286,1.762928,-0.000431,0.022371,0.013848,-0.027697,0.249082,-0.03832,9.608819
0,5E-06,0.007842,0.092335,-0.045324,1.636098,0.000184,-0.062851,-0.002131,-0.030893,0.105381,0.143701,-0.0479
1,0.007842,-8.2E-05,-0.045324,-0.035783,1.623551,0.000114,-0.002131,-0.030893,0.022371,0.143701,-0.0479,0.249082
2,-8.2E-05,2E-06,-0.035783,0.019224,1.701185,0.001905,-0.030893,0.022371,0.013848,-0.0479,0.249082,-0.03832
3,2E-06,-0.003107,0.019224,0.123286,1.755893,-0.000431,0.022371,0.013848,-0.027697,0.249082,-0.03832,9.608819
0,5E-06,0.007842,0.092335,-0.045324,1.63961,0.000184,-0.062851,-0.002131,-0.030893,0.105381,0.143701,-0.0479
1,0.007842,-8.2E-05,-0.045324,-0.035783,1.623371,0.000114,-0.002131,-0.030893,0.022371,0.143701,-0.0479,0.249082
2,-8.2E-05,2E-06,-0.035783,0.019224,1.69415,0.001905,-0.030893,0.022371,0.013848,-0.0479,0.249082,-0.03832
3,2E-06,-0.003107,0.019224,0.123286,1.748079,-0.000431,0.022371,0.013848,-0.027697,0.249082,-0.03832,9.608819
0,5E-06,0.007842,0.092335,-0.045324,1.641144,0.000184,-0.062851,-0.002131,-0.030893,0.105381,0.143701,-0.0479
1,0.007842,-8.2E-05,-0.045324,-0.035783,1.622568,0.000114,-0.002131,-0.030893,0.022371,0.143701,-0.0479,0.249082
2,-8.2E-05,2E-06,-0.035783,0.019224,1.68563,0.001905,-0.030893,0.022371,0.013848,-0.0479,0.249082,-0.03832
3,2E-06,-0.003107,0.019224,0.123286,1.739666,-0.000431,0.022371,0.013848,-0.027697,0.249082,-0.03832,9.608819
0,5E-06,0.007842,0.092335,-0.045324,1.641251,0.000184,-0.062851,-0.002131,-0.030893,0.105381,0.143701,-0.0479
1,0.007842,-8.2E-05,-0.045324,-0.035783,1.620603,0.000114,-0.002131,-0.030893,0.022371,0.143701,-0.0479,0.249082
2,-8.2E-05,2E-06,-0.035783,0.019224,1.676449,0.001905,-0.030893,0.022371,0.013848,-0.0479,0.249082,-0.03832
3,2E-06,-0.003107,0.019224,0.123286,1.730774,-0.000431,0.022371,0.013848,-0.027697,0.249082,-0.03832,9.608819
0,5E-06,0.007842,0.092335,-0.045324,1.640496,0.000184,-0.062851,-0.002131,-0.030893,0.105381,0.143701,-0.0479
1,0.007842,-8.2E-05,-0.045324,-0.035783,1.619189,0.000114,-0.002131,-0.030893,0.022371,0.143701,-0.0479,0.249082
2,-8.2E-05,2E-06,-0.035783,0.019224,1.667977,0.001905,-0.030893,0.022371,0.013848,-0.0479,0.249082,-0.03832
3,2E-06,-0.003107,0.019224,0.123286,1.721474,-0.000431,0.022371,0.013848,-0.027697,0.249082,-0.03832,9.608819
0,5E-06,0.007842,0.092335,-0.045324,1.639011,0.000184,-0.062851,-0.002131,-0.030893,0.105381,0.143701,-0.0479
1,0.007842,-8.2E-05,-0.045324,-0.035783,1.61847,0.000114,-0.002131,-0.030893,0.022371,0.143701,-0.0479,0.249082
2,-8.2E-05,2E-06,-0.035783,0.019224,1.660331,0.001905,-0.030893,0.022371,0.013848,-0.0479,0.249082,-0.03832
3,2E-06,-0.003107,0.019224,0.123286,1.711815,-0.000431,0.022371,0.013848,-0.027697,0.249082,-0.03832,9.608819
0,5E-06,0.007842,0.092335,-0.045324,1.63744,0.000184,-0.062851,-0.002131,-0.030893,0.105381,0.143701,-0.0479
1,0.007842,-8.2E-05,-0.045324,-0.035783,1.618278,0.000114,-0.002131,-0.030893,0.022371,0.143701,-0.0479,0.249082
2,-8.2E-05,2E-06,-0.035783,0.019224,1.653871,0.001905,-0.030893,0.022371,0.013848,-0.0479,0.249082,-0.03832
3,2E-06,-0.003107,0.019224,0.123286,1.702599,-0.000431,0.022371,0.013848,-0.027697,0.249082,-0.03832,9.608819
0,5E-06,0.007842,0.092335,-0.045324,1.636266,0.000184,-0.062851,-0.002131,-0.030893,0.105381,0.143701,-0.0479
1,0.007842,-8.2E-05,-0.045324,-0.035783,1.618146,0.000114,-0.002131,-0.030893,0.022371,0.143701,-0.0479,0.249082
2,-8.2E-05,2E-06,-0.035783,0.019224,1.648646,0.001905,-0.030893,0.022371,0.013848,-0.0479,0.249082,-0.03832
3,2E-06,-0.003107,0.019224,0.123286,1.693731,-0.000431,0.022371,0.013848,-0.027697,0.249082,-0.03832,9.608819
0,5E-06,0.007842,0.092335,-0.045324,1.635727,0.000184,-0.062851,-0.002131,-0.030893,0.105381,0.143701,-0.0479
1,0.007842,-8.2E-05,-0.045324,-0.035783,1.618002,0.000114,-0.002131,-0.030893,0.022371,0.143701,-0.0479,0.249082
2,-8.2E-05,2E-06,-0.035783,0.019224,1.645003,0.001905,-0.030893,0.022371,0.013848,-0.0479,0.249082,-0.03832
3,2E-06,-0.003107,0.019224,0.123286,1.685282,-0.000431,0.022371,0.013848,-0.027697,0.249082,-0.03832,9.608819
0,5E-06,0.007842,0.092335,-0.045324,1.635631,0.000184,-0.062851,-0.002131,-0.030893,0.105381,0.143701,-0.0479
1,0.007842,-8.2E-05,-0.045324,-0.035783,1.617751,0.000114,-0.002131,-0.030893,0.022371,0.143701,-0.0479,0.249082
2,-8.2E-05,2E-06,-0.035783,0.019224,1.642882,0.001905,-0.030893,0.022371,0.013848,-0.0479,0.249082,-0.03832
3,2E-06,-0.003107,0.019224,0.123286,1.677708,-0.000431,0.022371,0.013848,-0.027697,0.249082,-0.03832,9.608819
0,5E-06,0.007842,0.092335,-0.045324,1.635547,0.000184,-0.062851,-0.002131,-0.030893,0.105381,0.143701,-0.0479
1,0.007842,-8.2E-05,-0.045324,-0.035783,1.616936,0.000114,-0.002131,-0.030893,0.022371,0.143701,-0.0479,0.249082
2,-8.2E-05,2E-06,-0.035783,0.019224,1.641503,0.001905,-0.030893,0.022371,0.013848,-0.0479,0.249082,-0.03832
3,2E-06,-0.003107,0.019224,0.123286,1.670865,-0.000431,0.022371,0.013848,-0.027697,0.249082,-0.03832,9.608819
0,5E-06,0.007842,0.092335,-0.045324,1.635583,0.000184,-0.062851,-0.002131,-0.030893,0.105381,0.143701,-0.0479
1,0.007842,-8.2E-05,-0.045324,-0.035783,1.614695,0.000114,-0.002131,-0.030893,0.022371,0.143701,-0.0479,0.249082
2,-8.2E-05,2E-06,-0.035783,0.019224,1.640653,0.001905,-0.030893,0.022371,0.013848,-0.0479,0.249082,-0.03832
3,2E-06,-0.003107,0.019224,0.123286,1.664765,-0.000431,0.022371,0.013848,-0.027697,0.249082,-0.03832,9.608819
0,5E-06,0.007842,0.092335,-0.045324,1.636254,0.000184,-0.062851,-0.002131,-0.030893,0.105381,0.143701,-0.0479
1,0.007842,-8.2E-05,-0.045324,-0.035783,1.611147,0.000114,-0.002131,-0.030893,0.022371,0.143701,-0.0479,0.249082
2,-8.2E-05,2E-06,-0.035783,0.019224,1.640461,0.001905,-0.030893,0.022371,0.013848,-0.0479,0.249082,-0.03832
3,2E-06,-0.003107,0.019224,0.123286,1.660151,-0.000431,0.022371,0.013848,-0.027697,0.249082,-0.03832,9.608819
0,5E-06,0.007842,0.092335,-0.045324,1.637836,0.000184,-0.062851,-0.002131,-0.030893,0.105381,0.143701,-0.0479
1,0.007842,-8.2E-05,-0.045324,-0.035783,1.606606,0.000114,-0.002131,-0.030893,0.022371,0.143701,-0.0479,0.249082
2,-8.2E-05,2E-06,-0.035783,0.019224,1.640653,0.001905,-0.030893,0.022371,0.013848,-0.0479,0.249082,-0.03832
3,2E-06,-0.003107,0.019224,0.123286,1.657287,-0.000431,0.022371,0.013848,-0.027697,0.249082,-0.03832,9.608819
0,5E-06,0.007842,0.092335,-0.045324,1.639693,0.000184,-0.062851,-0.002131,-0.030893,0.105381,0.143701,-0.0479
1,0.007842,-8.2E-05,-0.045324,-0.035783,1.602135,0.000114,-0.002131,-0.030893,0.022371,0.143701,-0.0479,0.249082
2,-8.2E-05,2E-06,-0.035783,0.019224,1.640245,0.001905,-0.030893,0.022371,0.013848,-0.0479,0.249082,-0.03832
3,2E-06,-0.003107,0.019224,0.123286,1.655693,-0.000431,0.022371,0.013848,-0.027697,0.249082,-0.03832,9.608819
0,5E-06,0.007842,0.092335,-0.045324,1.640928,0.000184,-0.062851,-0.002131,-0.030893,0.105381,0.143701,-0.0479
1,0.007842,-8.2E-05,-0.045324,-0.035783,1.598743,0.000114,-0.002131,-0.030893,0.022371,0.143701,-0.0479,0.249082
2,-8.2E-05,2E-06,-0.035783,0.019224,1.638723,0.001905,-0.030893,0.022371,0.013848,-0.0479,0.249082,-0.03832
3,2E-06,-0.003107,0.019224,0.123286,1.654746,-0.000431,0.022371,0.013848,-0.027697,0.249082,-0.03832,9.608819
0,5E-06,0.007842,0.092335,-0.045324,1.641096,0.000184,-0.062851,-0.002131,-0.030893,0.105381,0.143701,-0.0479
1,0.007842,-8.2E-05,-0.045324,-0.035783,1.597293,0.000114,-0.002131,-0.030893,0.022371,0.143701,-0.0479,0.249082
2,-8.2E-05,2E-06,-0.035783,0.019224,1.636566,0.001905,-0.030893,0.022371,0.013848,-0.0479,0.249082,-0.03832
3,2E-06,-0.003107,0.019224,0.123286,1.65441,-0.000431,0.022371,0.013848,-0.027697,0.249082,-0.03832,9.608819
0,5E-06,0.007842,0.092335,-0.045324,1.64076,0.000184,-0.062851,-0.002131,-0.030893,0.105381,0.143701,-0.0479
1,0.007842,-8.2E-05,-0.045324,-0.035783,1.598696,0.000114,-0.002131,-0.030893,0.022371,0.143701,-0.0479,0.249082
2,-8.2E-05,2E-06,-0.035783,0.019224,1.634097,0.001905,-0.030893,0.022371,0.013848,-0.0479,0.249082,-0.03832
3,2E-06,-0.003107,0.019224,0.123286,1.654482,-0.000431,0.022371,0.013848,-0.027697,0.249082,-0.03832,9.608819
0,5E-06,0.007842,0.092335,-0.045324,1.640796,0.000184,-0.062851,-0.002131,-0.030893,0.105381,0.143701,-0.0479
1,0.007842,-8.2E-05,-0.045324,-0.035783,1.602015,0.000114,-0.002131,-0.030893,0.022371,0.143701,-0.0479,0.249082
2,-8.2E-05,2E-06,-0.035783,0.019224,1.631557,0.001905,-0.030893,0.022371,0.013848,-0.0479,0.249082,-0.03832
3,2E-06,-0.003107,0.019224,0.123286,1.65489,-0.000431,0.022371,0.013848,-0.027697,0.249082,-0.03832,9.608819
0,5E-06,0.007842,0.092335,-0.045324,1.641587,0.000184,-0.062851,-0.002131,-0.030893,0.105381,0.143701,-0.0479
1,0.007842,-8.2E-05,-0.045324,-0.035783,1.605239,0.000114,-0.002131,-0.030893,0.022371,0.143701,-0.0479,0.249082
2,-8.2E-05,2E-06,-0.035783,0.019224,1.629232,0.001905,-0.030893,0.022371,0.013848,-0.0479,0.249082,-0.03832
3,2E-06,-0.003107,0.019224,0.123286,1.655141,-0.000431,0.022371,0.013848,-0.027697,0.249082,-0.03832,9.608819
0,5E-06,0.007842,0.092335,-0.045324,1.643337,0.000184,-0.062851,-0.002131,-0.030893,0.105381,0.143701,-0.0479
1,0.007842,-8.2E-05,-0.045324,-0.035783,1.608595,0.000114,-0.002131,-0.030893,0.022371,0.143701,-0.0479,0.249082
2,-8.2E-05,2E-06,-0.035783,0.019224,1.627062,0.001905,-0.030893,0.022371,0.013848,-0.0479,0.249082,-0.03832
3,2E-06,-0.003107,0.019224,0.123286,1.654638,-0.000431,0.022371,0.013848,-0.027697,0.249082,-0.03832,9.608819
0,5E-06,0.007842,0.092335,-0.045324,1.645853,0.000184,-0.062851,-0.002131,-0.030893,0.105381,0.143701,-0.0479
1,0.007842,-8.2E-05,-0.045324,-0.035783,1.612621,0.000114,-0.002131,-0.030893,0.022371,0.143701,-0.0479,0.249082
2,-8.2E-05,2E-06,-0.035783,0.019224,1.624893,0.001905,-0.030893,0.022371,0.013848,-0.0479,0.249082,-0.03832
3,2E-06,-0.003107,0.019224,0.123286,1.653308,-0.000431,0.022371,0.013848,-0.027697,0.249082,-0.03832,9.608819
0,5E-06,0.007842,0.092335,-0.045324,1.648885,0.000184,-0.062851,-0.002131,-0.030893,0.105381,0.143701,-0.0479
1,0.007842,-8.2E-05,-0.045324,-0.035783,1.616756,0.000114,-0.002131,-0.030893,0.022371,0.143701,-0.0479,0.249082
2,-8.2E-05,2E-06,-0.035783,0.019224,1.623072,0.001905,-0.030893,0.022371,0.013848,-0.0479,0.249082,-0.03832
3,2E-06,-0.003107,0.019224,0.123286,1.651738,-0.000431,0.022371,0.013848,-0.027697,0.249082,-0.03832,9.608819
0,5E-06,0.007842,0.092335,-0.045324,1.652936,0.000184,-0.062851,-0.002131,-0.030893,0.105381,0.143701,-0.0479
1,0.007842,-8.2E-05,-0.045324,-0.035783,1.620172,0.000114,-0.002131,-0.030893,0.022371,0.143701,-0.0479,0.249082
2,-8.2E-05,2E-06,-0.035783,0.019224,1.621861,0.001905,-0.030893,0.022371,0.013848,-0.0479,0.249082,-0.03832
3,2E-06,-0.003107,0.019224,0.123286,1.64994,-0.000431,0.022371,0.013848,-0.027697,0.249082,-0.03832,9.608819
0,5E-06,0.007842,0.092335,-0.045324,1.657658,0.000184,-0.062851,-0.002131,-0.030893,0.105381,0.143701,-0.0479
1,0.007842,-8.2E-05,-0.045324,-0.035783,1.622736,0.000114,-0.002131,-0.030893,0.022371,0.143701,-0.0479,0.249082
2,-8.2E-05,2E-06,-0.035783,0.019224,1.621058,0.001905,-0.030893,0.022371,0.013848,-0.0479,0.249082,-0.03832
3,2E-06,-0.003107,0.019224,0.123286,1.647891,-0.000431,0.022371,0.013848,-0.027697,0.249082,-0.03832,9.608819
0,5E-06,0.007842,0.092335,-0.045324,1.662344,0.000184,-0.062851,-0.002131,-0.030893,0.105381,0.143701,-0.0479
1,0.007842,-8.2E-05,-0.045324,-0.035783,1.625372,0.000114,-0.002131,-0.030893,0.022371,0.143701,-0.0479,0.249082
2,-8.2E-05,2E-06,-0.035783,0.019224,1.620351,0.001905,-0.030893,0.022371,0.013848,-0.0479,0.249082,-0.03832
3,2E-06,-0.003107,0.019224,0.123286,1.645878,-0.000431,0.022371,0.013848,-0.027697,0.249082,-0.03832,9.608819
0,5E-06,0.007842,0.092335,-0.045324,1.664561,0.000184,-0.062851,-0.002131,-0.030893,0.105381,0.143701,-0.0479
1,0.007842,-8.2E-05,-0.045324,-0.035783,1.626799,0.000114,-0.002131,-0.030893,0.022371,0.143701,-0.0479,0.249082
2,-8.2E-05,2E-06,-0.035783,0.019224,1.619944,0.001905,-0.030893,0.022371,0.013848,-0.0479,0.249082,-0.03832
3,2E-06,-0.003107,0.019224,0.123286,1.64408,-0.000431,0.022371,0.013848,-0.027697,0.249082,-0.03832,9.608819
0,5E-06,0.007842,0.092335,-0.045324,1.661061,0.000184,-0.062851,-0.002131,-0.030893,0.105381,0.143701,-0.0479
1,0.007842,-8.2E-05,-0.045324,-0.035783,1.626894,0.000114,-0.002131,-0.030893,0.022371,0.143701,-0.0479,0.249082
2,-8.2E-05,2E-06,-0.035783,0.019224,1.620052,0.001905,-0.030893,0.022371,0.013848,-0.0479,0.249082,-0.03832
3,2E-06,-0.003107,0.019224,0.123286,1.643002,-0.000431,0.022371,0.013848,-0.027697,0.249082,-0.03832,9.608819
0,5E-06,0.007842,0.092335,-0.045324,1.649964,0.000184,-0.062851,-0.002131,-0.030893,0.105381,0.143701,-0.0479
1,0.007842,-8.2E-05,-0.045324,-0.035783,1.625948,0.000114,-0.002131,-0.030893,0.022371,0.143701,-0.0479,0.249082
2,-8.2E-05,2E-06,-0.035783,0.019224,1.620351,0.001905,-0.030893,0.022371,0.013848,-0.0479,0.249082,-0.03832
3,2E-06,-0.003107,0.019224,0.123286,1.643133,-0.000431,0.022371,0.013848,-0.027697,0.249082,-0.03832,9.608819
0,5E-06,0.007842,0.092335,-0.045324,1.631472,0.000184,-0.062851,-0.002131,-0.030893,0.105381,0.143701,-0.0479
1,0.007842,-8.2E-05,-0.045324,-0.035783,1.62264,0.000114,-0.002131,-0.030893,0.022371,0.143701,-0.0479,0.249082
2,-8.2E-05,2E-06,-0.035783,0.019224,1.621178,0.001905,-0.030893,0.022371,0.013848,-0.0479,0.249082,-0.03832
3,2E-06,-0.003107,0.019224,0.123286,1.644056,-0.000431,0.022371,0.013848,-0.027697,0.249082,-0.03832,9.608819
0,5E-06,0.007842,0.092335,-0.045324,1.608187,0.000184,-0.062851,-0.002131,-0.030893,0.105381,0.143701,-0.0479
1,0.007842,-8.2E-05,-0.045324,-0.035783,1.615582,0.000114,-0.002131,-0.030893,0.022371,0.143701,-0.0479,0.249082
2,-8.2E-05,2E-06,-0.035783,0.019224,1.622125,0.001905,-0.030893,0.022371,0.013848,-0.0479,0.249082,-0.03832
3,2E-06,-0.003107,0.019224,0.123286,1.645278,-0.000431,0.022371,0.013848,-0.027697,0.249082,-0.03832,9.608819
0,5E-06,0.007842,0.092335,-0.045324,1.589216,0.000184,-0.062851,-0.002131,-0.030893,0.105381,0.143701,-0.0479
1,0.007842,-8.2E-05,-0.045324,-0.035783,1.602674,0.000114,-0.002131,-0.030893,0.022371,0.143701,-0.0479,0.249082
2,-8.2E-05,2E-06,-0.035783,0.019224,1.623,0.001905,-0.030893,0.022371,0.013848,-0.0479,0.249082,-0.03832
3,2E-06,-0.003107,0.019224,0.123286,1.646729,-0.000431,0.022371,0.013848,-0.027697,0.249082,-0.03832,9.608819
0,5E-06,0.007842,0.092335,-0.045324,1.575602,0.000184,-0.062851,-0.002131,-0.030893,0.105381,0.143701,-0.0479
1,0.007842,-8.2E-05,-0.045324,-0.035783,1.589264,0.000114,-0.002131,-0.030893,0.022371,0.143701,-0.0479,0.249082
2,-8.2E-05,2E-06,-0.035783,0.019224,1.623983,0.001905,-0.030893,0.022371,0.013848,-0.0479,0.249082,-0.03832
3,2E-06,-0.003107,0.019224,0.123286,1.648586,-0.000431,0.022371,0.013848,-0.027697,0.249082,-0.03832,9.608819
0,5E-06,0.007842,0.092335,-0.045324,1.565212,0.000184,-0.062851,-0.002131,-0.030893,0.105381,0.143701,-0.0479
1,0.007842,-8.2E-05,-0.045324,-0.035783,1.57601,0.000114,-0.002131,-0.030893,0.022371,0.143701,-0.0479,0.249082
2,-8.2E-05,2E-06,-0.035783,0.019224,1.62469,0.001905,-0.030893,0.022371,0.013848,-0.0479,0.249082,-0.03832
3,2E-06,-0.003107,0.019224,0.123286,1.651031,-0.000431,0.022371,0.013848,-0.027697,0.249082,-0.03832,9.608819
0,5E-06,0.007842,0.092335,-0.045324,1.556259,0.000184,-0.062851,-0.002131,-0.030893,0.105381,0.143701,-0.0479
1,0.007842,-8.2E-05,-0.045324,-0.035783,1.562288,0.000114,-0.002131,-0.030893,0.022371,0.143701,-0.0479,0.249082
2,-8.2E-05,2E-06,-0.035783,0.019224,1.624833,0.001905,-0.030893,0.022371,0.013848,-0.0479,0.249082,-0.03832
3,2E-06,-0.003107,0.019224,0.123286,1.653679,-0.000431,0.022371,0.013848,-0.027697,0.249082,-0.03832,9.608819
0,5E-06,0.007842,0.092335,-0.045324,1.546612,0.000184,-0.062851,-0.002131,-0.030893,0.105381,0.143701,-0.0479
1,0.007842,-8.2E-05,-0.045324,-0.035783,1.552617,0.000114,-0.002131,-0.030893,0.022371,0.143701,-0.0479,0.249082
2,-8.2E-05,2E-06,-0.035783,0.019224,1.624306,0.001905,-0.030893,0.022371,0.013848,-0.0479,0.249082,-0.03832
3,2E-06,-0.003107,0.019224,0.123286,1.656208,-0.000431,0.022371,0.013848,-0.027697,0.249082,-0.03832,9.608819
0,5E-06,0.007842,0.092335,-0.045324,1.538487,0.000184,-0.062851,-0.002131,-0.030893,0.105381,0.143701,-0.0479
1,0.007842,-8.2E-05,-0.045324,-0.035783,1.546528,0.000114,-0.002131,-0.030893,0.022371,0.143701,-0.0479,0.249082
2,-8.2E-05,2E-06,-0.035783,0.019224,1.623,0.001905,-0.030893,0.022371,0.013848,-0.0479,0.249082,-0.03832
3,2E-06,-0.003107,0.019224,0.123286,1.657706,-0.000431,0.022371,0.013848,-0.027697,0.249082,-0.03832,9.608819
0,5E-06,0.007842,0.092335,-0.045324,1.535407,0.000184,-0.062851,-0.002131,-0.030893,0.105381,0.143701,-0.0479
1,0.007842,-8.2E-05,-0.045324,-0.035783,1.541567,0.000114,-0.002131,-0.030893,0.022371,0.143701,-0.0479,0.249082
2,-8.2E-05,2E-06,-0.035783,0.019224,1.620927,0.001905,-0.030893,0.022371,0.013848,-0.0479,0.249082,-0.03832
3,2E-06,-0.003107,0.019224,0.123286,1.657227,-0.000431,0.022371,0.013848,-0.027697,0.249082,-0.03832,9.608819
0,5E-06,0.007842,0.092335,-0.045324,1.535982,0.000184,-0.062851,-0.002131,-0.030893,0.105381,0.143701,-0.0479
1,0.007842,-8.2E-05,-0.045324,-0.035783,1.537193,0.000114,-0.002131,-0.030893,0.022371,0.143701,-0.0479,0.249082
2,-8.2E-05,2E-06,-0.035783,0.019224,1.618146,0.001905,-0.030893,0.022371,0.013848,-0.0479,0.249082,-0.03832
3,2E-06,-0.003107,0.019224,0.123286,1.65501,-0.000431,0.022371,0.013848,-0.027697,0.249082,-0.03832,9.608819
0,5E-06,0.007842,0.092335,-0.045324,1.536497,0.000184,-0.062851,-0.002131,-0.030893,0.105381,0.143701,-0.0479
1,0.007842,-8.2E-05,-0.045324,-0.035783,1.534748,0.000114,-0.002131,-0.030893,0.022371,0.143701,-0.0479,0.249082
2,-8.2E-05,2E-06,-0.035783,0.019224,1.614743,0.001905,-0.030893,0.022371,0.013848,-0.0479,0.249082,-0.03832
3,2E-06,-0.003107,0.019224,0.123286,1.651534,-0.000431,0.022371,0.013848,-0.027697,0.249082,-0.03832,9.608819
0,5E-06,0.007842,0.092335,-0.045324,1.537144,0.000184,-0.062851,-0.002131,-0.030893,0.105381,0.143701,-0.0479
1,0.007842,-8.2E-05,-0.045324,-0.035783,1.532902,0.000114,-0.002131,-0.030893,0.022371,0.143701,-0.0479,0.249082
2,-8.2E-05,2E-06,-0.035783,0.019224,1.610487,0.001905,-0.030893,0.022371,0.013848,-0.0479,0.249082,-0.03832
3,2E-06,-0.003107,0.019224,0.123286,1.6471,-0.000431,0.022371,0.013848,-0.027697,0.249082,-0.03832,9.608819
0,5E-06,0.007842,0.092335,-0.045324,1.538247,0.000184,-0.062851,-0.002131,-0.030893,0.105381,0.143701,-0.0479
1,0.007842,-8.2E-05,-0.045324,-0.035783,1.531488,0.000114,-0.002131,-0.030893,0.022371,0.143701,-0.0479,0.249082
2,-8.2E-05,2E-06,-0.035783,0.019224,1.606234,0.001905,-0.030893,0.022371,0.013848,-0.0479,0.249082,-0.03832
3,2E-06,-0.003107,0.019224,0.123286,1.642438,-0.000431,0.022371,0.013848,-0.027697,0.249082,-0.03832,9.608819
0,5E-06,0.007842,0.092335,-0.045324,1.539098,0.000184,-0.062851,-0.002131,-0.030893,0.105381,0.143701,-0.0479
1,0.007842,-8.2E-05,-0.045324,-0.035783,1.53174,0.000114,-0.002131,-0.030893,0.022371,0.143701,-0.0479,0.249082
2,-8.2E-05,2E-06,-0.035783,0.019224,1.602159,0.001905,-0.030893,0.022371,0.013848,-0.0479,0.249082,-0.03832
3,2E-06,-0.003107,0.019224,0.123286,1.637776,-0.000431,0.022371,0.013848,-0.027697,0.249082,-0.03832,9.608819
0,5E-06,0.007842,0.092335,-0.045324,1.539841,0.000184,-0.062851,-0.002131,-0.030893,0.105381,0.143701,-0.0479
1,0.007842,-8.2E-05,-0.045324,-0.035783,1.534389,0.000114,-0.002131,-0.030893,0.022371,0.143701,-0.0479,0.249082
2,-8.2E-05,2E-06,-0.035783,0.019224,1.598193,0.001905,-0.030893,0.022371,0.013848,-0.0479,0.249082,-0.03832
3,2E-06,-0.003107,0.019224,0.123286,1.633462,-0.000431,0.022371,0.013848,-0.027697,0.249082,-0.03832,9.608819
0,5E-06,0.007842,0.092335,-0.045324,1.540165,0.000184,-0.062851,-0.002131,-0.030893,0.105381,0.143701,-0.0479
1,0.007842,-8.2E-05,-0.045324,-0.035783,1.540824,0.000114,-0.002131,-0.030893,0.022371,0.143701,-0.0479,0.249082
2,-8.2E-05,2E-06,-0.035783,0.019224,1.594777,0.001905,-0.030893,0.022371,0.013848,-0.0479,0.249082,-0.03832
3,2E-06,-0.003107,0.019224,0.123286,1.630526,-0.000431,0.022371,0.013848,-0.027697,0.249082,-0.03832,9.608819
0,5E-06,0.007842,0.092335,-0.045324,1.540272,0.000184,-0.062851,-0.002131,-0.030893,0.105381,0.143701,-0.0479
1,0.007842,-8.2E-05,-0.045324,-0.035783,1.545414,0.000114,-0.002131,-0.030893,0.022371,0.143701,-0.0479,0.249082
2,-8.2E-05,2E-06,-0.035783,0.019224,1.591302,0.001905,-0.030893,0.022371,0.013848,-0.0479,0.249082,-0.03832
3,2E-06,-0.003107,0.019224,0.123286,1.628692,-0.000431,0.022371,0.013848,-0.027697,0.249082,-0.03832,9.608819
0,5E-06,0.007842,0.092335,-0.045324,1.540057,0.000184,-0.062851,-0.002131,-0.030893,0.105381,0.143701,-0.0479
1,0.007842,-8.2E-05,-0.045324,-0.035783,1.548973,0.000114,-0.002131,-0.030893,0.022371,0.143701,-0.0479,0.249082
2,-8.2E-05,2E-06,-0.035783,0.019224,1.587574,0.001905,-0.030893,0.022371,0.013848,-0.0479,0.249082,-0.03832
3,2E-06,-0.003107,0.019224,0.123286,1.627218,-0.000431,0.022371,0.013848,-0.027697,0.249082,-0.03832,9.608819
0,5E-06,0.007842,0.092335,-0.045324,1.537756,0.000184,-0.062851,-0.002131,-0.030893,0.105381,0.143701,-0.0479
1,0.007842,-8.2E-05,-0.045324,-0.035783,1.554306,0.000114,-0.002131,-0.030893,0.022371,0.143701,-0.0479,0.249082
2,-8.2E-05,2E-06,-0.035783,0.019224,1.584938,0.001905,-0.030893,0.022371,0.013848,-0.0479,0.249082,-0.03832
3,2E-06,-0.003107,0.019224,0.123286,1.626188,-0.000431,0.022371,0.013848,-0.027697,0.249082,-0.03832,9.608819
0,5E-06,0.007842,0.092335,-0.045324,1.535287,0.000184,-0.062851,-0.002131,-0.030893,0.105381,0.143701,-0.0479
1,0.007842,-8.2E-05,-0.045324,-0.035783,1.561209,0.000114,-0.002131,-0.030893,0.022371,0.143701,-0.0479,0.249082
2,-8.2E-05,2E-06,-0.035783,0.019224,1.583692,0.001905,-0.030893,0.022371,0.013848,-0.0479,0.249082,-0.03832
3,2E-06,-0.003107,0.019224,0.123286,1.626391,-0.000431,0.022371,0.013848,-0.027697,0.249082,-0.03832,9.608819
0,5E-06,0.007842,0.092335,-0.045324,1.531632,0.000184,-0.062851,-0.002131,-0.030893,0.105381,0.143701,-0.0479
1,0.007842,-8.2E-05,-0.045324,-0.035783,1.566818,0.000114,-0.002131,-0.030893,0.022371,0.143701,-0.0479,0.249082
2,-8.2E-05,2E-06,-0.035783,0.019224,1.582529,0.001905,-0.030893,0.022371,0.013848,-0.0479,0.249082,-0.03832
3,2E-06,-0.003107,0.019224,0.123286,1.626427,-0.000431,0.022371,0.013848,-0.027697,0.249082,-0.03832,9.608819
0,5E-06,0.007842,0.092335,-0.045324,1.528887,0.000184,-0.062851,-0.002131,-0.030893,0.105381,0.143701,-0.0479
1,0.007842,-8.2E-05,-0.045324,-0.035783,1.570832,0.000114,-0.002131,-0.030893,0.022371,0.143701,-0.0479,0.249082
2,-8.2E-05,2E-06,-0.035783,0.019224,1.582433,0.001905,-0.030893,0.022371,0.013848,-0.0479,0.249082,-0.03832
3,2E-06,-0.003107,0.019224,0.123286,1.626595,-0.000431,0.022371,0.013848,-0.027697,0.249082,-0.03832,9.608819
0,5E-06,0.007842,0.092335,-0.045324,1.523914,0.000184,-0.062851,-0.002131,-0.030893,0.105381,0.143701,-0.0479
1,0.007842,-8.2E-05,-0.045324,-0.035783,1.572438,0.000114,-0.002131,-0.030893,0.022371,0.143701,-0.0479,0.249082
2,-8.2E-05,2E-06,-0.035783,0.019224,1.582889,0.001905,-0.030893,0.022371,0.013848,-0.0479,0.249082,-0.03832
3,2E-06,-0.003107,0.019224,0.123286,1.626907,-0.000431,0.022371,0.013848,-0.027697,0.249082,-0.03832,9.608819
0,5E-06,0.007842,0.092335,-0.045324,1.519252,0.000184,-0.062851,-0.002131,-0.030893,0.105381,0.143701,-0.0479
1,0.007842,-8.2E-05,-0.045324,-0.035783,1.571683,0.000114,-0.002131,-0.030893,0.022371,0.143701,-0.0479,0.249082
2,-8.2E-05,2E-06,-0.035783,0.019224,1.583152,0.001905,-0.030893,0.022371,0.013848,-0.0479,0.249082,-0.03832
3,2E-06,-0.003107,0.019224,0.123286,1.626415,-0.000431,0.022371,0.013848,-0.027697,0.249082,-0.03832,9.608819
0,5E-06,0.007842,0.092335,-0.045324,1.520966,0.000184,-0.062851,-0.002131,-0.030893,0.105381,0.143701,-0.0479
1,0.007842,-8.2E-05,-0.045324,-0.035783,1.569958,0.000114,-0.002131,-0.030893,0.022371,0.143701,-0.0479,0.249082
2,-8.2E-05,2E-06,-0.035783,0.019224,1.583344,0.001905,-0.030893,0.022371,0.013848,-0.0479,0.249082,-0.03832
3,2E-06,-0.003107,0.019224,0.123286,1.625145,-0.000431,0.022371,0.013848,-0.027697,0.249082,-0.03832,9.608819
0,5E-06,0.007842,0.092335,-0.045324,1.525208,0.000184,-0.062851,-0.002131,-0.030893,0.105381,0.143701,-0.0479
1,0.007842,-8.2E-05,-0.045324,-0.035783,1.566255,0.000114,-0.002131,-0.030893,0.022371,0.143701,-0.0479,0.249082
2,-8.2E-05,2E-06,-0.035783,0.019224,1.584063,0.001905,-0.030893,0.022371,0.013848,-0.0479,0.249082,-0.03832
3,2E-06,-0.003107,0.019224,0.123286,1.623899,-0.000431,0.022371,0.013848,-0.027697,0.249082,-0.03832,9.608819
0,5E-06,0.007842,0.092335,-0.045324,1.529295,0.000184,-0.062851,-0.002131,-0.030893,0.105381,0.143701,-0.0479
1,0.007842,-8.2E-05,-0.045324,-0.035783,1.562479,0.000114,-0.002131,-0.030893,0.022371,0.143701,-0.0479,0.249082
2,-8.2E-05,2E-06,-0.035783,0.019224,1.585429,0.001905,-0.030893,0.022371,0.013848,-0.0479,0.249082,-0.03832
3,2E-06,-0.003107,0.019224,0.123286,1.623994,-0.000431,0.022371,0.013848,-0.027697,0.249082,-0.03832,9.608819
0,5E-06,0.007842,0.092335,-0.045324,1.53283,0.000184,-0.062851,-0.002131,-0.030893,0.105381,0.143701,-0.0479
1,0.007842,-8.2E-05,-0.045324,-0.035783,1.559172,0.000114,-0.002131,-0.030893,0.022371,0.143701,-0.0479,0.249082
2,-8.2E-05,2E-06,-0.035783,0.019224,1.5861,0.001905,-0.030893,0.022371,0.013848,-0.0479,0.249082,-0.03832
3,2E-06,-0.003107,0.019224,0.123286,1.624534,-0.000431,0.022371,0.013848,-0.027697,0.249082,-0.03832,9.608819
0,5E-06,0.007842,0.092335,-0.045324,1.536821,0.000184,-0.062851,-0.002131,-0.030893,0.105381,0.143701,-0.0479
1,0.007842,-8.2E-05,-0.045324,-0.035783,1.5559,0.000114,-0.002131,-0.030893,0.022371,0.143701,-0.0479,0.249082
2,-8.2E-05,2E-06,-0.035783,0.019224,1.586652,0.001905,-0.030893,0.022371,0.013848,-0.0479,0.249082,-0.03832
3,2E-06,-0.003107,0.019224,0.123286,1.62427,-0.000431,0.022371,0.013848,-0.027697,0.249082,-0.03832,9.608819
0,5E-06,0.007842,0.092335,-0.045324,1.541147,0.000184,-0.062851,-0.002131,-0.030893,0.105381,0.143701,-0.0479
1,0.007842,-8.2E-05,-0.045324,-0.035783,1.558021,0.000114,-0.002131,-0.030893,0.022371,0.143701,-0.0479,0.249082
2,-8.2E-05,2E-06,-0.035783,0.019224,1.586927,0.001905,-0.030893,0.022371,0.013848,-0.0479,0.249082,-0.03832
3,2E-06,-0.003107,0.019224,0.123286,1.622509,-0.000431,0.022371,0.013848,-0.027697,0.249082,-0.03832,9.608819
0,5E-06,0.007842,0.092335,-0.045324,1.543053,0.000184,-0.062851,-0.002131,-0.030893,0.105381,0.143701,-0.0479
1,0.007842,-8.2E-05,-0.045324,-0.035783,1.563606,0.000114,-0.002131,-0.030893,0.022371,0.143701,-0.0479,0.249082
2,-8.2E-05,2E-06,-0.035783,0.019224,1.58682,0.001905,-0.030893,0.022371,0.013848,-0.0479,0.249082,-0.03832
3,2E-06,-0.003107,0.019224,0.123286,1.619692,-0.000431,0.022371,0.013848,-0.027697,0.249082,-0.03832,9.608819
0,5E-06,0.007842,0.092335,-0.045324,1.545102,0.000184,-0.062851,-0.002131,-0.030893,0.105381,0.143701,-0.0479
1,0.007842,-8.2E-05,-0.045324,-0.035783,1.568759,0.000114,-0.002131,-0.030893,0.022371,0.143701,-0.0479,0.249082
2,-8.2E-05,2E-06,-0.035783,0.019224,1.586172,0.001905,-0.030893,0.022371,0.013848,-0.0479,0.249082,-0.03832
3,2E-06,-0.003107,0.019224,0.123286,1.615629,-0.000431,0.022371,0.013848,-0.027697,0.249082,-0.03832,9.608819
0,5E-06,0.007842,0.092335,-0.045324,1.547858,0.000184,-0.062851,-0.002131,-0.030893,0.105381,0.143701,-0.0479
1,0.007842,-8.2E-05,-0.045324,-0.035783,1.572498,0.000114,-0.002131,-0.030893,0.022371,0.143701,-0.0479,0.249082
2,-8.2E-05,2E-06,-0.035783,0.019224,1.582541,0.001905,-0.030893,0.022371,0.013848,-0.0479,0.249082,-0.03832
3,2E-06,-0.003107,0.019224,0.123286,1.609302,-0.000431,0.022371,0.013848,-0.027697,0.249082,-0.03832,9.608819
0,5E-06,0.007842,0.092335,-0.045324,1.54823,0.000184,-0.062851,-0.002131,-0.030893,0.105381,0.143701,-0.0479
1,0.007842,-8.2E-05,-0.045324,-0.035783,1.575734,0.000114,-0.002131,-0.030893,0.022371,0.143701,-0.0479,0.249082
2,-8.2E-05,2E-06,-0.035783,0.019224,1.577112,0.001905,-0.030893,0.022371,0.013848,-0.0479,0.249082,-0.03832
3,2E-06,-0.003107,0.019224,0.123286,1.60186,-0.000431,0.022371,0.013848,-0.027697,0.249082,-0.03832,9.608819
0,5E-06,0.007842,0.092335,-0.045324,1.550135,0.000184,-0.062851,-0.002131,-0.030893,0.105381,0.143701,-0.0479
1,0.007842,-8.2E-05,-0.045324,-0.035783,1.577424,0.000114,-0.002131,-0.030893,0.022371,0.143701,-0.0479,0.249082
2,-8.2E-05,2E-06,-0.035783,0.019224,1.572307,0.001905,-0.030893,0.022371,0.013848,-0.0479,0.249082,-0.03832
3,2E-06,-0.003107,0.019224,0.123286,1.594741,-0.000431,0.022371,0.013848,-0.027697,0.249082,-0.03832,9.608819
0,5E-06,0.007842,0.092335,-0.045324,1.554114,0.000184,-0.062851,-0.002131,-0.030893,0.105381,0.143701,-0.0479
1,0.007842,-8.2E-05,-0.045324,-0.035783,1.579365,0.000114,-0.002131,-0.030893,0.022371,0.143701,-0.0479,0.249082
2,-8.2E-05,2E-06,-0.035783,0.019224,1.568591,0.001905,-0.030893,0.022371,0.013848,-0.0479,0.249082,-0.03832
3,2E-06,-0.003107,0.019224,0.123286,1.589684,-0.000431,0.022371,0.013848,-0.027697,0.249082,-0.03832,9.608819
0,5E-06,0.007842,0.092335,-0.045324,1.562611,0.000184,-0.062851,-0.002131,-0.030893,0.105381,0.143701,-0.0479
1,0.007842,-8.2E-05,-0.045324,-0.035783,1.583787,0.000114,-0.002131,-0.030893,0.022371,0.143701,-0.0479,0.249082
2,-8.2E-05,2E-06,-0.035783,0.019224,1.566315,0.001905,-0.030893,0.022371,0.013848,-0.0479,0.249082,-0.03832
3,2E-06,-0.003107,0.019224,0.123286,1.58755,-0.000431,0.022371,0.013848,-0.027697,0.249082,-0.03832,9.608819
0,5E-06,0.007842,0.092335,-0.045324,1.558596,0.000184,-0.062851,-0.002131,-0.030893,0.105381,0.143701,-0.0479
1,0.007842,-8.2E-05,-0.045324,-0.035783,1.586879,0.000114,-0.002131,-0.030893,0.022371,0.143701,-0.0479,0.249082
2,-8.2E-05,2E-06,-0.035783,0.019224,1.564601,0.001905,-0.030893,0.022371,0.013848,-0.0479,0.249082,-0.03832
3,2E-06,-0.003107,0.019224,0.123286,1.587706,-0.000431,0.022371,0.013848,-0.027697,0.249082,-0.03832,9.608819
0,5E-06,0.007842,0.092335,-0.045324,1.559447,0.000184,-0.062851,-0.002131,-0.030893,0.105381,0.143701,-0.0479
1,0.007842,-8.2E-05,-0.045324,-0.035783,1.588114,0.000114,-0.002131,-0.030893,0.022371,0.143701,-0.0479,0.249082
2,-8.2E-05,2E-06,-0.035783,0.019224,1.563151,0.001905,-0.030893,0.022371,0.013848,-0.0479,0.249082,-0.03832
3,2E-06,-0.003107,0.019224,0.123286,1.588485,-0.000431,0.022371,0.013848,-0.027697,0.249082,-0.03832,9.608819
0,5E-06,0.007842,0.092335,-0.045324,1.560286,0.000184,-0.062851,-0.002131,-0.030893,0.105381,0.143701,-0.0479
1,0.007842,-8.2E-05,-0.045324,-0.035783,1.588006,0.000114,-0.002131,-0.030893,0.022371,0.143701,-0.0479,0.249082
2,-8.2E-05,2E-06,-0.035783,0.019224,1.563055,0.001905,-0.030893,0.022371,0.013848,-0.0479,0.249082,-0.03832
3,2E-06,-0.003107,0.019224,0.123286,1.589528,-0.000431,0.022371,0.013848,-0.027697,0.249082,-0.03832,9.608819
0,5E-06,0.007842,0.092335,-0.045324,1.561616,0.000184,-0.062851,-0.002131,-0.030893,0.105381,0.143701,-0.0479
1,0.007842,-8.2E-05,-0.045324,-0.035783,1.587323,0.000114,-0.002131,-0.030893,0.022371,0.143701,-0.0479,0.249082
2,-8.2E-05,2E-06,-0.035783,0.019224,1.562731,0.001905,-0.030893,0.022371,0.013848,-0.0479,0.249082,-0.03832
3,2E-06,-0.003107,0.019224,0.123286,1.591265,-0.000431,0.022371,0.013848,-0.027697,0.249082,-0.03832,9.608819
0,5E-06,0.007842,0.092335,-0.045324,1.562635,0.000184,-0.062851,-0.002131,-0.030893,0.105381,0.143701,-0.0479
1,0.007842,-8.2E-05,-0.045324,-0.035783,1.588976,0.000114,-0.002131,-0.030893,0.022371,0.143701,-0.0479,0.249082
2,-8.2E-05,2E-06,-0.035783,0.019224,1.561509,0.001905,-0.030893,0.022371,0.013848,-0.0479,0.249082,-0.03832
3,2E-06,-0.003107,0.019224,0.123286,1.592248,-0.000431,0.022371,0.013848,-0.027697,0.249082,-0.03832,9.608819
0,5E-06,0.007842,0.092335,-0.045324,1.562431,0.000184,-0.062851,-0.002131,-0.030893,0.105381,0.143701,-0.0479
1,0.007842,-8.2E-05,-0.045324,-0.035783,1.588545,0.000114,-0.002131,-0.030893,0.022371,0.143701,-0.0479,0.249082
2,-8.2E-05,2E-06,-0.035783,0.019224,1.560778,0.001905,-0.030893,0.022371,0.013848,-0.0479,0.249082,-0.03832
3,2E-06,-0.003107,0.019224,0.123286,1.593207,-0.000431,0.022371,0.013848,-0.027697,0.249082,-0.03832,9.608819
0,5E-06,0.007842,0.092335,-0.045324,1.565475,0.000184,-0.062851,-0.002131,-0.030893,0.105381,0.143701,-0.0479
1,0.007842,-8.2E-05,-0.045324,-0.035783,1.590559,0.000114,-0.002131,-0.030893,0.022371,0.143701,-0.0479,0.249082
2,-8.2E-05,2E-06,-0.035783,0.019224,1.559531,0.001905,-0.030893,0.022371,0.013848,-0.0479,0.249082,-0.03832
3,2E-06,-0.003107,0.019224,0.123286,1.593003,-0.000431,0.022371,0.013848,-0.027697,0.249082,-0.03832,9.608819
0,5E-06,0.007842,0.092335,-0.045324,1.567776,0.000184,-0.062851,-0.002131,-0.030893,0.105381,0.143701,-0.0479
1,0.007842,-8.2E-05,-0.045324,-0.035783,1.592344,0.000114,-0.002131,-0.030893,0.022371,0.143701,-0.0479,0.249082
2,-8.2E-05,2E-06,-0.035783,0.019224,1.558705,0.001905,-0.030893,0.022371,0.013848,-0.0479,0.249082,-0.03832
3,2E-06,-0.003107,0.019224,0.123286,1.592704,-0.000431,0.022371,0.013848,-0.027697,0.249082,-0.03832,9.608819
0,5E-06,0.007842,0.092335,-0.045324,1.570581,0.000184,-0.062851,-0.002131,-0.030893,0.105381,0.143701,-0.0479
1,0.007842,-8.2E-05,-0.045324,-0.035783,1.593674,0.000114,-0.002131,-0.030893,0.022371,0.143701,-0.0479,0.249082
2,-8.2E-05,2E-06,-0.035783,0.019224,1.557602,0.001905,-0.030893,0.022371,0.013848,-0.0479,0.249082,-0.03832
3,2E-06,-0.003107,0.019224,0.123286,1.593027,-0.000431,0.022371,0.013848,-0.027697,0.249082,-0.03832,9.608819
0,5E-06,0.007842,0.092335,-0.045324,1.571384,0.000184,-0.062851,-0.002131,-0.030893,0.105381,0.143701,-0.0479
1,0.007842,-8.2E-05,-0.045324,-0.035783,1.594154,0.000114,-0.002131,-0.030893,0.022371,0.143701,-0.0479,0.249082
2,-8.2E-05,2E-06,-0.035783,0.019224,1.556116,0.001905,-0.030893,0.022371,0.013848,-0.0479,0.249082,-0.03832
3,2E-06,-0.003107,0.019224,0.123286,1.593806,-0.000431,0.022371,0.013848,-0.027697,0.249082,-0.03832,9.608819
0,5E-06,0.007842,0.092335,-0.045324,1.57559,0.000184,-0.062851,-0.002131,-0.030893,0.105381,0.143701,-0.0479
1,0.007842,-8.2E-05,-0.045324,-0.035783,1.598217,0.000114,-0.002131,-0.030893,0.022371,0.143701,-0.0479,0.249082
2,-8.2E-05,2E-06,-0.035783,0.019224,1.554953,0.001905,-0.030893,0.022371,0.013848,-0.0479,0.249082,-0.03832
3,2E-06,-0.003107,0.019224,0.123286,1.594346,-0.000431,0.022371,0.013848,-0.027697,0.249082,-0.03832,9.608819
0,5E-06,0.007842,0.092335,-0.045324,1.580432,0.000184,-0.062851,-0.002131,-0.030893,0.105381,0.143701,-0.0479
1,0.007842,-8.2E-05,-0.045324,-0.035783,1.603094,0.000114,-0.002131,-0.030893,0.022371,0.143701,-0.0479,0.249082
2,-8.2E-05,2E-06,-0.035783,0.019224,1.55167,0.001905,-0.030893,0.022371,0.013848,-0.0479,0.249082,-0.03832
3,2E-06,-0.003107,0.019224,0.123286,1.594274,-0.000431,0.022371,0.013848,-0.027697,0.249082,-0.03832,9.608819
0,5E-06,0.007842,0.092335,-0.045324,1.583488,0.000184,-0.062851,-0.002131,-0.030893,0.105381,0.143701,-0.0479
1,0.007842,-8.2E-05,-0.045324,-0.035783,1.601176,0.000114,-0.002131,-0.030893,0.022371,0.143701,-0.0479,0.249082
2,-8.2E-05,2E-06,-0.035783,0.019224,1.542454,0.001905,-0.030893,0.022371,0.013848,-0.0479,0.249082,-0.03832
3,2E-06,-0.003107,0.019224,0.123286,1.587491,-0.000431,0.022371,0.013848,-0.027697,0.249082,-0.03832,9.608819
0,5E-06,0.007842,0.092335,-0.045324,1.586196,0.000184,-0.062851,-0.002131,-0.030893,0.105381,0.143701,-0.0479
1,0.007842,-8.2E-05,-0.045324,-0.035783,1.595016,0.000114,-0.002131,-0.030893,0.022371,0.143701,-0.0479,0.249082
2,-8.2E-05,2E-06,-0.035783,0.019224,1.534125,0.001905,-0.030893,0.022371,0.013848,-0.0479,0.249082,-0.03832
3,2E-06,-0.003107,0.019224,0.123286,1.579317,-0.000431,0.022371,0.013848,-0.027697,0.249082,-0.03832,9.608819
0,5E-06,0.007842,0.092335,-0.045324,1.591313,0.000184,-0.062851,-0.002131,-0.030893,0.105381,0.143701,-0.0479
1,0.007842,-8.2E-05,-0.045324,-0.035783,1.591709,0.000114,-0.002131,-0.030893,0.022371,0.143701,-0.0479,0.249082
2,-8.2E-05,2E-06,-0.035783,0.019224,1.526071,0.001905,-0.030893,0.022371,0.013848,-0.0479,0.249082,-0.03832
3,2E-06,-0.003107,0.019224,0.123286,1.573709,-0.000431,0.022371,0.013848,-0.027697,0.249082,-0.03832,9.608819
0,5E-06,0.007842,0.092335,-0.045324,1.593327,0.000184,-0.062851,-0.002131,-0.030893,0.105381,0.143701,-0.0479
1,0.007842,-8.2E-05,-0.045324,-0.035783,1.590283,0.000114,-0.002131,-0.030893,0.022371,0.143701,-0.0479,0.249082
2,-8.2E-05,2E-06,-0.035783,0.019224,1.513763,0.001905,-0.030893,0.022371,0.013848,-0.0479,0.249082,-0.03832
3,2E-06,-0.003107,0.019224,0.123286,1.568807,-0.000431,0.022371,0.013848,-0.027697,0.249082,-0.03832,9.608819
0,5E-06,0.007842,0.092335,-0.045324,1.595244,0.000184,-0.062851,-0.002131,-0.030893,0.105381,0.143701,-0.0479
1,0.007842,-8.2E-05,-0.045324,-0.035783,1.575985,0.000114,-0.002131,-0.030893,0.022371,0.143701,-0.0479,0.249082
2,-8.2E-05,2E-06,-0.035783,0.019224,1.505195,0.001905,-0.030893,0.022371,0.013848,-0.0479,0.249082,-0.03832
3,2E-06,-0.003107,0.019224,0.123286,1.560262,-0.000431,0.022371,0.013848,-0.027697,0.249082,-0.03832,9.608819
0,5E-06,0.007842,0.092335,-0.045324,1.595124,0.000184,-0.062851,-0.002131,-0.030893,0.105381,0.143701,-0.0479
1,0.007842,-8.2E-05,-0.045324,-0.035783,1.567549,0.000114,-0.002131,-0.030893,0.022371,0.143701,-0.0479,0.249082
2,-8.2E-05,2E-06,-0.035783,0.019224,1.504775,0.001905,-0.030893,0.022371,0.013848,-0.0479,0.249082,-0.03832
3,2E-06,-0.003107,0.019224,0.123286,1.554282,-0.000431,0.022371,0.013848,-0.027697,0.249082,-0.03832,9.608819
0,5E-06,0.007842,0.092335,-0.045324,1.594105,0.000184,-0.062851,-0.002131,-0.030893,0.105381,0.143701,-0.0479
1,0.007842,-8.2E-05,-0.045324,-0.035783,1.560071,0.000114,-0.002131,-0.030893,0.022371,0.143701,-0.0479,0.249082
2,-8.2E-05,2E-06,-0.035783,0.019224,1.500593,0.001905,-0.030893,0.022371,0.013848,-0.0479,0.249082,-0.03832
3,2E-06,-0.003107,0.019224,0.123286,1.553012,-0.000431,0.022371,0.013848,-0.027697,0.249082,-0.03832,9.608819
0,5E-06,0.007842,0.092335,-0.045324,1.594585,0.000184,-0.062851,-0.002131,-0.030893,0.105381,0.143701,-0.0479
1,0.007842,-8.2E-05,-0.045324,-0.035783,1.554869,0.000114,-0.002131,-0.030893,0.022371,0.143701,-0.0479,0.249082
2,-8.2E-05,2E-06,-0.035783,0.019224,1.492623,0.001905,-0.030893,0.022371,0.013848,-0.0479,0.249082,-0.03832
3,2E-06,-0.003107,0.019224,0.123286,1.553539,-0.000431,0.022371,0.013848,-0.027697,0.249082,-0.03832,9.608819
0,5E-06,0.007842,0.092335,-0.045324,1.593039,0.000184,-0.062851,-0.002131,-0.030893,0.105381,0.143701,-0.0479
1,0.007842,-8.2E-05,-0.045324,-0.035783,1.549896,0.000114,-0.002131,-0.030893,0.022371,0.143701,-0.0479,0.249082
2,-8.2E-05,2E-06,-0.035783,0.019224,1.487686,0.001905,-0.030893,0.022371,0.013848,-0.0479,0.249082,-0.03832
3,2E-06,-0.003107,0.019224,0.123286,1.553887,-0.000431,0.022371,0.013848,-0.027697,0.249082,-0.03832,9.608819
0,5E-06,0.007842,0.092335,-0.045324,1.589827,0.000184,-0.062851,-0.002131,-0.030893,0.105381,0.143701,-0.0479
1,0.007842,-8.2E-05,-0.045324,-0.035783,1.550052,0.000114,-0.002131,-0.030893,0.022371,0.143701,-0.0479,0.249082
2,-8.2E-05,2E-06,-0.035783,0.019224,1.483671,0.001905,-0.030893,0.022371,0.013848,-0.0479,0.249082,-0.03832
3,2E-06,-0.003107,0.019224,0.123286,1.554894,-0.000431,0.022371,0.013848,-0.027697,0.249082,-0.03832,9.608819
0,5E-06,0.007842,0.092335,-0.045324,1.585513,0.000184,-0.062851,-0.002131,-0.030893,0.105381,0.143701,-0.0479
1,0.007842,-8.2E-05,-0.045324,-0.035783,1.550962,0.000114,-0.002131,-0.030893,0.022371,0.143701,-0.0479,0.249082
2,-8.2E-05,2E-06,-0.035783,0.019224,1.481526,0.001905,-0.030893,0.022371,0.013848,-0.0479,0.249082,-0.03832
3,2E-06,-0.003107,0.019224,0.123286,1.552856,-0.000431,0.022371,0.013848,-0.027697,0.249082,-0.03832,9.608819
0,5E-06,0.007842,0.092335,-0.045324,1.579041,0.000184,-0.062851,-0.002131,-0.030893,0.105381,0.143701,-0.0479
1,0.007842,-8.2E-05,-0.045324,-0.035783,1.553096,0.000114,-0.002131,-0.030893,0.022371,0.143701,-0.0479,0.249082
2,-8.2E-05,2E-06,-0.035783,0.019224,1.485876,0.001905,-0.030893,0.022371,0.013848,-0.0479,0.249082,-0.03832
3,2E-06,-0.003107,0.019224,0.123286,1.548062,-0.000431,0.022371,0.013848,-0.027697,0.249082,-0.03832,9.608819
0,5E-06,0.007842,0.092335,-0.045324,1.573253,0.000184,-0.062851,-0.002131,-0.030893,0.105381,0.143701,-0.0479
1,0.007842,-8.2E-05,-0.045324,-0.035783,1.5559,0.000114,-0.002131,-0.030893,0.022371,0.143701,-0.0479,0.249082
2,-8.2E-05,2E-06,-0.035783,0.019224,1.494038,0.001905,-0.030893,0.022371,0.013848,-0.0479,0.249082,-0.03832
3,2E-06,-0.003107,0.019224,0.123286,1.544551,-0.000431,0.022371,0.013848,-0.027697,0.249082,-0.03832,9.608819
0,5E-06,0.007842,0.092335,-0.045324,1.567273,0.000184,-0.062851,-0.002131,-0.030893,0.105381,0.143701,-0.0479
1,0.007842,-8.2E-05,-0.045324,-0.035783,1.561018,0.000114,-0.002131,-0.030893,0.022371,0.143701,-0.0479,0.249082
2,-8.2E-05,2E-06,-0.035783,0.019224,1.504284,0.001905,-0.030893,0.022371,0.013848,-0.0479,0.249082,-0.03832
3,2E-06,-0.003107,0.019224,0.123286,1.544335,-0.000431,0.022371,0.013848,-0.027697,0.249082,-0.03832,9.608819
0,5E-06,0.007842,0.092335,-0.045324,1.558896,0.000184,-0.062851,-0.002131,-0.030893,0.105381,0.143701,-0.0479
1,0.007842,-8.2E-05,-0.045324,-0.035783,1.56514,0.000114,-0.002131,-0.030893,0.022371,0.143701,-0.0479,0.249082
2,-8.2E-05,2E-06,-0.035783,0.019224,1.513836,0.001905,-0.030893,0.022371,0.013848,-0.0479,0.249082,-0.03832
3,2E-06,-0.003107,0.019224,0.123286,1.547595,-0.000431,0.022371,0.013848,-0.027697,0.249082,-0.03832,9.608819
0,5E-06,0.007842,0.092335,-0.045324,1.551394,0.000184,-0.062851,-0.002131,-0.030893,0.105381,0.143701,-0.0479
1,0.007842,-8.2E-05,-0.045324,-0.035783,1.56798,0.000114,-0.002131,-0.030893,0.022371,0.143701,-0.0479,0.249082
2,-8.2E-05,2E-06,-0.035783,0.019224,1.521517,0.001905,-0.030893,0.022371,0.013848,-0.0479,0.249082,-0.03832
3,2E-06,-0.003107,0.019224,0.123286,1.556931,-0.000431,0.022371,0.013848,-0.027697,0.249082,-0.03832,9.608819
0,5E-06,0.007842,0.092335,-0.045324,1.543112,0.000184,-0.062851,-0.002131,-0.030893,0.105381,0.143701,-0.0479
1,0.007842,-8.2E-05,-0.045324,-0.035783,1.568591,0.000114,-0.002131,-0.030893,0.022371,0.143701,-0.0479,0.249082
2,-8.2E-05,2E-06,-0.035783,0.019224,1.5283,0.001905,-0.030893,0.022371,0.013848,-0.0479,0.249082,-0.03832
3,2E-06,-0.003107,0.019224,0.123286,1.565404,-0.000431,0.022371,0.013848,-0.027697,0.249082,-0.03832,9.608819
0,5E-06,0.007842,0.092335,-0.045324,1.536701,0.000184,-0.062851,-0.002131,-0.030893,0.105381,0.143701,-0.0479
1,0.007842,-8.2E-05,-0.045324,-0.035783,1.5681,0.000114,-0.002131,-0.030893,0.022371,0.143701,-0.0479,0.249082
2,-8.2E-05,2E-06,-0.035783,0.019224,1.535851,0.001905,-0.030893,0.022371,0.013848,-0.0479,0.249082,-0.03832
3,2E-06,-0.003107,0.019224,0.123286,1.570113,-0.000431,0.022371,0.013848,-0.027697,0.249082,-0.03832,9.608819
0,5E-06,0.007842,0.092335,-0.045324,1.531932,0.000184,-0.062851,-0.002131,-0.030893,0.105381,0.143701,-0.0479
1,0.007842,-8.2E-05,-0.045324,-0.035783,1.565392,0.000114,-0.002131,-0.030893,0.022371,0.143701,-0.0479,0.249082
2,-8.2E-05,2E-06,-0.035783,0.019224,1.54418,0.001905,-0.030893,0.022371,0.013848,-0.0479,0.249082,-0.03832
3,2E-06,-0.003107,0.019224,0.123286,1.573757,-0.000431,0.022371,0.013848,-0.027697,0.249082,-0.03832,9.608819
0,5E-06,0.007842,0.092335,-0.045324,1.528372,0.000184,-0.062851,-0.002131,-0.030893,0.105381,0.143701,-0.0479
1,0.007842,-8.2E-05,-0.045324,-0.035783,1.561077,0.000114,-0.002131,-0.030893,0.022371,0.143701,-0.0479,0.249082
2,-8.2E-05,2E-06,-0.035783,0.019224,1.551981,0.001905,-0.030893,0.022371,0.013848,-0.0479,0.249082,-0.03832
3,2E-06,-0.003107,0.019224,0.123286,1.574212,-0.000431,0.022371,0.013848,-0.027697,0.249082,-0.03832,9.608819
0,5E-06,0.007842,0.092335,-0.045324,1.526455,0.000184,-0.062851,-0.002131,-0.030893,0.105381,0.143701,-0.0479
1,0.007842,-8.2E-05,-0.045324,-0.035783,1.554558,0.000114,-0.002131,-0.030893,0.022371,0.143701,-0.0479,0.249082
2,-8.2E-05,2E-06,-0.035783,0.019224,1.555864,0.001905,-0.030893,0.022371,0.013848,-0.0479,0.249082,-0.03832
3,2E-06,-0.003107,0.019224,0.123286,1.572966,-0.000431,0.022371,0.013848,-0.027697,0.249082,-0.03832,9.608819
0,5E-06,0.007842,0.092335,-0.045324,1.524681,0.000184,-0.062851,-0.002131,-0.030893,0.105381,0.143701,-0.0479
1,0.007842,-8.2E-05,-0.045324,-0.035783,1.547775,0.000114,-0.002131,-0.030893,0.022371,0.143701,-0.0479,0.249082
2,-8.2E-05,2E-06,-0.035783,0.019224,1.560491,0.001905,-0.030893,0.022371,0.013848,-0.0479,0.249082,-0.03832
3,2E-06,-0.003107,0.019224,0.123286,1.571036,-0.000431,0.022371,0.013848,-0.027697,0.249082,-0.03832,9.608819
0,5E-06,0.007842,0.092335,-0.045324,1.525616,0.000184,-0.062851,-0.002131,-0.030893,0.105381,0.143701,-0.0479
1,0.007842,-8.2E-05,-0.045324,-0.035783,1.541088,0.000114,-0.002131,-0.030893,0.022371,0.143701,-0.0479,0.249082
2,-8.2E-05,2E-06,-0.035783,0.019224,1.565476,0.001905,-0.030893,0.022371,0.013848,-0.0479,0.249082,-0.03832
3,2E-06,-0.003107,0.019224,0.123286,1.569526,-0.000431,0.022371,0.013848,-0.027697,0.249082,-0.03832,9.608819
0,5E-06,0.007842,0.092335,-0.045324,1.525903,0.000184,-0.062851,-0.002131,-0.030893,0.105381,0.143701,-0.0479
1,0.007842,-8.2E-05,-0.045324,-0.035783,1.533921,0.000114,-0.002131,-0.030893,0.022371,0.143701,-0.0479,0.249082
2,-8.2E-05,2E-06,-0.035783,0.019224,1.567381,0.001905,-0.030893,0.022371,0.013848,-0.0479,0.249082,-0.03832
3,2E-06,-0.003107,0.019224,0.123286,1.571887,-0.000431,0.022371,0.013848,-0.027697,0.249082,-0.03832,9.608819
0,5E-06,0.007842,0.092335,-0.045324,1.526047,0.000184,-0.062851,-0.002131,-0.030893,0.105381,0.143701,-0.0479
1,0.007842,-8.2E-05,-0.045324,-0.035783,1.526946,0.000114,-0.002131,-0.030893,0.022371,0.143701,-0.0479,0.249082
2,-8.2E-05,2E-06,-0.035783,0.019224,1.566135,0.001905,-0.030893,0.022371,0.013848,-0.0479,0.249082,-0.03832
3,2E-06,-0.003107,0.019224,0.123286,1.578658,-0.000431,0.022371,0.013848,-0.027697,0.249082,-0.03832,9.608819
0,5E-06,0.007842,0.092335,-0.045324,1.526035,0.000184,-0.062851,-0.002131,-0.030893,0.105381,0.143701,-0.0479
1,0.007842,-8.2E-05,-0.045324,-0.035783,1.52208,0.000114,-0.002131,-0.030893,0.022371,0.143701,-0.0479,0.249082
2,-8.2E-05,2E-06,-0.035783,0.019224,1.565679,0.001905,-0.030893,0.022371,0.013848,-0.0479,0.249082,-0.03832
3,2E-06,-0.003107,0.019224,0.123286,1.584027,-0.000431,0.022371,0.013848,-0.027697,0.249082,-0.03832,9.608819
0,5E-06,0.007842,0.092335,-0.045324,1.527929,0.000184,-0.062851,-0.002131,-0.030893,0.105381,0.143701,-0.0479
1,0.007842,-8.2E-05,-0.045324,-0.035783,1.519792,0.000114,-0.002131,-0.030893,0.022371,0.143701,-0.0479,0.249082
2,-8.2E-05,2E-06,-0.035783,0.019224,1.566027,0.001905,-0.030893,0.022371,0.013848,-0.0479,0.249082,-0.03832
3,2E-06,-0.003107,0.019224,0.123286,1.588102,-0.000431,0.022371,0.013848,-0.027697,0.249082,-0.03832,9.608819
0,5E-06,0.007842,0.092335,-0.045324,1.530913,0.000184,-0.062851,-0.002131,-0.030893,0.105381,0.143701,-0.0479
1,0.007842,-8.2E-05,-0.045324,-0.035783,1.520307,0.000114,-0.002131,-0.030893,0.022371,0.143701,-0.0479,0.249082
2,-8.2E-05,2E-06,-0.035783,0.019224,1.564145,0.001905,-0.030893,0.022371,0.013848,-0.0479,0.249082,-0.03832
3,2E-06,-0.003107,0.019224,0.123286,1.590702,-0.000431,0.022371,0.013848,-0.027697,0.249082,-0.03832,9.608819
0,5E-06,0.007842,0.092335,-0.045324,1.536174,0.000184,-0.062851,-0.002131,-0.030893,0.105381,0.143701,-0.0479
1,0.007842,-8.2E-05,-0.045324,-0.035783,1.520571,0.000114,-0.002131,-0.030893,0.022371,0.143701,-0.0479,0.249082
2,-8.2E-05,2E-06,-0.035783,0.019224,1.562192,0.001905,-0.030893,0.022371,0.013848,-0.0479,0.249082,-0.03832
3,2E-06,-0.003107,0.019224,0.123286,1.586304,-0.000431,0.022371,0.013848,-0.027697,0.249082,-0.03832,9.608819
0,5E-06,0.007842,0.092335,-0.045324,1.540716,0.000184,-0.062851,-0.002131,-0.030893,0.105381,0.143701,-0.0479
1,0.007842,-8.2E-05,-0.045324,-0.035783,1.520966,0.000114,-0.002131,-0.030893,0.022371,0.143701,-0.0479,0.249082
2,-8.2E-05,2E-06,-0.035783,0.019224,1.564589,0.001905,-0.030893,0.022371,0.013848,-0.0479,0.249082,-0.03832
3,2E-06,-0.003107,0.019224,0.123286,1.579964,-0.000431,0.022371,0.013848,-0.027697,0.249082,-0.03832,9.608819
0,5E-06,0.007842,0.092335,-0.045324,1.544311,0.000184,-0.062851,-0.002131,-0.030893,0.105381,0.143701,-0.0479
1,0.007842,-8.2E-05,-0.045324,-0.035783,1.524322,0.000114,-0.002131,-0.030893,0.022371,0.143701,-0.0479,0.249082
2,-8.2E-05,2E-06,-0.035783,0.019224,1.570845,0.001905,-0.030893,0.022371,0.013848,-0.0479,0.249082,-0.03832
3,2E-06,-0.003107,0.019224,0.123286,1.574979,-0.000431,0.022371,0.013848,-0.027697,0.249082,-0.03832,9.608819
0,5E-06,0.007842,0.092335,-0.045324,1.548517,0.000184,-0.062851,-0.002131,-0.030893,0.105381,0.143701,-0.0479
1,0.007842,-8.2E-05,-0.045324,-0.035783,1.530074,0.000114,-0.002131,-0.030893,0.022371,0.143701,-0.0479,0.249082
2,-8.2E-05,2E-06,-0.035783,0.019224,1.57885,0.001905,-0.030893,0.022371,0.013848,-0.0479,0.249082,-0.03832
3,2E-06,-0.003107,0.019224,0.123286,1.574799,-0.000431,0.022371,0.013848,-0.027697,0.249082,-0.03832,9.608819
0,5E-06,0.007842,0.092335,-0.045324,1.550399,0.000184,-0.062851,-0.002131,-0.030893,0.105381,0.143701,-0.0479
1,0.007842,-8.2E-05,-0.045324,-0.035783,1.535335,0.000114,-0.002131,-0.030893,0.022371,0.143701,-0.0479,0.249082
2,-8.2E-05,2E-06,-0.035783,0.019224,1.584722,0.001905,-0.030893,0.022371,0.013848,-0.0479,0.249082,-0.03832
3,2E-06,-0.003107,0.019224,0.123286,1.574871,-0.000431,0.022371,0.013848,-0.027697,0.249082,-0.03832,9.608819
0,5E-06,0.007842,0.092335,-0.045324,1.550088,0.000184,-0.062851,-0.002131,-0.030893,0.105381,0.143701,-0.0479
1,0.007842,-8.2E-05,-0.045324,-0.035783,1.539937,0.000114,-0.002131,-0.030893,0.022371,0.143701,-0.0479,0.249082
2,-8.2E-05,2E-06,-0.035783,0.019224,1.58906,0.001905,-0.030893,0.022371,0.013848,-0.0479,0.249082,-0.03832
3,2E-06,-0.003107,0.019224,0.123286,1.581702,-0.000431,0.022371,0.013848,-0.027697,0.249082,-0.03832,9.608819
0,5E-06,0.007842,0.092335,-0.045324,1.548422,0.000184,-0.062851,-0.002131,-0.030893,0.105381,0.143701,-0.0479
1,0.007842,-8.2E-05,-0.045324,-0.035783,1.544491,0.000114,-0.002131,-0.030893,0.022371,0.143701,-0.0479,0.249082
2,-8.2E-05,2E-06,-0.035783,0.019224,1.593039,0.001905,-0.030893,0.022371,0.013848,-0.0479,0.249082,-0.03832
3,2E-06,-0.003107,0.019224,0.123286,1.586927,-0.000431,0.022371,0.013848,-0.027697,0.249082,-0.03832,9.608819
0,5E-06,0.007842,0.092335,-0.045324,1.547044,0.000184,-0.062851,-0.002131,-0.030893,0.105381,0.143701,-0.0479
1,0.007842,-8.2E-05,-0.045324,-0.035783,1.5498,0.000114,-0.002131,-0.030893,0.022371,0.143701,-0.0479,0.249082
2,-8.2E-05,2E-06,-0.035783,0.019224,1.595532,0.001905,-0.030893,0.022371,0.013848,-0.0479,0.249082,-0.03832
3,2E-06,-0.003107,0.019224,0.123286,1.591697,-0.000431,0.022371,0.013848,-0.027697,0.249082,-0.03832,9.608819
0,5E-06,0.007842,0.092335,-0.045324,1.546576,0.000184,-0.062851,-0.002131,-0.030893,0.105381,0.143701,-0.0479
1,0.007842,-8.2E-05,-0.045324,-0.035783,1.55445,0.000114,-0.002131,-0.030893,0.022371,0.143701,-0.0479,0.249082
2,-8.2E-05,2E-06,-0.035783,0.019224,1.595232,0.001905,-0.030893,0.022371,0.013848,-0.0479,0.249082,-0.03832
3,2E-06,-0.003107,0.019224,0.123286,1.596982,-0.000431,0.022371,0.013848,-0.027697,0.249082,-0.03832,9.608819
0,5E-06,0.007842,0.092335,-0.045324,1.546576,0.000184,-0.062851,-0.002131,-0.030893,0.105381,0.143701,-0.0479
1,0.007842,-8.2E-05,-0.045324,-0.035783,1.558357,0.000114,-0.002131,-0.030893,0.022371,0.143701,-0.0479,0.249082
2,-8.2E-05,2E-06,-0.035783,0.019224,1.592488,0.001905,-0.030893,0.022371,0.013848,-0.0479,0.249082,-0.03832
3,2E-06,-0.003107,0.019224,0.123286,1.601524,-0.000431,0.022371,0.013848,-0.027697,0.249082,-0.03832,9.608819
0,5E-06,0.007842,0.092335,-0.045324,1.5469,0.000184,-0.062851,-0.002131,-0.030893,0.105381,0.143701,-0.0479
1,0.007842,-8.2E-05,-0.045324,-0.035783,1.561473,0.000114,-0.002131,-0.030893,0.022371,0.143701,-0.0479,0.249082
2,-8.2E-05,2E-06,-0.035783,0.019224,1.587311,0.001905,-0.030893,0.022371,0.013848,-0.0479,0.249082,-0.03832
3,2E-06,-0.003107,0.019224,0.123286,1.605035,-0.000431,0.022371,0.013848,-0.027697,0.249082,-0.03832,9.608819
0,5E-06,0.007842,0.092335,-0.045324,1.548925,0.000184,-0.062851,-0.002131,-0.030893,0.105381,0.143701,-0.0479
1,0.007842,-8.2E-05,-0.045324,-0.035783,1.564157,0.000114,-0.002131,-0.030893,0.022371,0.143701,-0.0479,0.249082
2,-8.2E-05,2E-06,-0.035783,0.019224,1.580468,0.001905,-0.030893,0.022371,0.013848,-0.0479,0.249082,-0.03832
3,2E-06,-0.003107,0.019224,0.123286,1.606869,-0.000431,0.022371,0.013848,-0.027697,0.249082,-0.03832,9.608819
0,5E-06,0.007842,0.092335,-0.045324,1.549476,0.000184,-0.062851,-0.002131,-0.030893,0.105381,0.143701,-0.0479
1,0.007842,-8.2E-05,-0.045324,-0.035783,1.565643,0.000114,-0.002131,-0.030893,0.022371,0.143701,-0.0479,0.249082
2,-8.2E-05,2E-06,-0.035783,0.019224,1.573146,0.001905,-0.030893,0.022371,0.013848,-0.0479,0.249082,-0.03832
3,2E-06,-0.003107,0.019224,0.123286,1.608463,-0.000431,0.022371,0.013848,-0.027697,0.249082,-0.03832,9.608819
0,5E-06,0.007842,0.092335,-0.045324,1.548961,0.000184,-0.062851,-0.002131,-0.030893,0.105381,0.143701,-0.0479
1,0.007842,-8.2E-05,-0.045324,-0.035783,1.565511,0.000114,-0.002131,-0.030893,0.022371,0.143701,-0.0479,0.249082
2,-8.2E-05,2E-06,-0.035783,0.019224,1.564577,0.001905,-0.030893,0.022371,0.013848,-0.0479,0.249082,-0.03832
3,2E-06,-0.003107,0.019224,0.123286,1.61062,-0.000431,0.022371,0.013848,-0.027697,0.249082,-0.03832,9.608819
0,5E-06,0.007842,0.092335,-0.045324,1.549105,0.000184,-0.062851,-0.002131,-0.030893,0.105381,0.143701,-0.0479
1,0.007842,-8.2E-05,-0.045324,-0.035783,1.563726,0.000114,-0.002131,-0.030893,0.022371,0.143701,-0.0479,0.249082
2,-8.2E-05,2E-06,-0.035783,0.019224,1.558165,0.001905,-0.030893,0.022371,0.013848,-0.0479,0.249082,-0.03832
3,2E-06,-0.003107,0.019224,0.123286,1.613652,-0.000431,0.022371,0.013848,-0.027697,0.249082,-0.03832,9.608819
0,5E-06,0.007842,0.092335,-0.045324,1.549213,0.000184,-0.062851,-0.002131,-0.030893,0.105381,0.143701,-0.0479
1,0.007842,-8.2E-05,-0.045324,-0.035783,1.560502,0.000114,-0.002131,-0.030893,0.022371,0.143701,-0.0479,0.249082
2,-8.2E-05,2E-06,-0.035783,0.019224,1.553431,0.001905,-0.030893,0.022371,0.013848,-0.0479,0.249082,-0.03832
3,2E-06,-0.003107,0.019224,0.123286,1.618074,-0.000431,0.022371,0.013848,-0.027697,0.249082,-0.03832,9.608819
0,5E-06,0.007842,0.092335,-0.045324,1.54636,0.000184,-0.062851,-0.002131,-0.030893,0.105381,0.143701,-0.0479
1,0.007842,-8.2E-05,-0.045324,-0.035783,1.554689,0.000114,-0.002131,-0.030893,0.022371,0.143701,-0.0479,0.249082
2,-8.2E-05,2E-06,-0.035783,0.019224,1.55179,0.001905,-0.030893,0.022371,0.013848,-0.0479,0.249082,-0.03832
3,2E-06,-0.003107,0.019224,0.123286,1.623287,-0.000431,0.022371,0.013848,-0.027697,0.249082,-0.03832,9.608819
0,5E-06,0.007842,0.092335,-0.045324,1.544671,0.000184,-0.062851,-0.002131,-0.030893,0.105381,0.143701,-0.0479
1,0.007842,-8.2E-05,-0.045324,-0.035783,1.547152,0.000114,-0.002131,-0.030893,0.022371,0.143701,-0.0479,0.249082
2,-8.2E-05,2E-06,-0.035783,0.019224,1.550447,0.001905,-0.030893,0.022371,0.013848,-0.0479,0.249082,-0.03832
3,2E-06,-0.003107,0.019224,0.123286,1.625373,-0.000431,0.022371,0.013848,-0.027697,0.249082,-0.03832,9.608819
0,5E-06,0.007842,0.092335,-0.045324,1.543532,0.000184,-0.062851,-0.002131,-0.030893,0.105381,0.143701,-0.0479
1,0.007842,-8.2E-05,-0.045324,-0.035783,1.541507,0.000114,-0.002131,-0.030893,0.022371,0.143701,-0.0479,0.249082
2,-8.2E-05,2E-06,-0.035783,0.019224,1.550759,0.001905,-0.030893,0.022371,0.013848,-0.0479,0.249082,-0.03832
3,2E-06,-0.003107,0.019224,0.123286,1.626331,-0.000431,0.022371,0.013848,-0.027697,0.249082,-0.03832,9.608819
0,5E-06,0.007842,0.092335,-0.045324,1.543424,0.000184,-0.062851,-0.002131,-0.030893,0.105381,0.143701,-0.0479
1,0.007842,-8.2E-05,-0.045324,-0.035783,1.536174,0.000114,-0.002131,-0.030893,0.022371,0.143701,-0.0479,0.249082
2,-8.2E-05,2E-06,-0.035783,0.019224,1.552029,0.001905,-0.030893,0.022371,0.013848,-0.0479,0.249082,-0.03832
3,2E-06,-0.003107,0.019224,0.123286,1.625792,-0.000431,0.022371,0.013848,-0.027697,0.249082,-0.03832,9.608819
0,5E-06,0.007842,0.092335,-0.045324,1.544802,0.000184,-0.062851,-0.002131,-0.030893,0.105381,0.143701,-0.0479
1,0.007842,-8.2E-05,-0.045324,-0.035783,1.531416,0.000114,-0.002131,-0.030893,0.022371,0.143701,-0.0479,0.249082
2,-8.2E-05,2E-06,-0.035783,0.019224,1.552197,0.001905,-0.030893,0.022371,0.013848,-0.0479,0.249082,-0.03832
3,2E-06,-0.003107,0.019224,0.123286,1.620771,-0.000431,0.022371,0.013848,-0.027697,0.249082,-0.03832,9.608819
0,5E-06,0.007842,0.092335,-0.045324,1.545306,0.000184,-0.062851,-0.002131,-0.030893,0.105381,0.143701,-0.0479
1,0.007842,-8.2E-05,-0.045324,-0.035783,1.527845,0.000114,-0.002131,-0.030893,0.022371,0.143701,-0.0479,0.249082
2,-8.2E-05,2E-06,-0.035783,0.019224,1.552341,0.001905,-0.030893,0.022371,0.013848,-0.0479,0.249082,-0.03832
3,2E-06,-0.003107,0.019224,0.123286,1.612789,-0.000431,0.022371,0.013848,-0.027697,0.249082,-0.03832,9.608819
0,5E-06,0.007842,0.092335,-0.045324,1.545258,0.000184,-0.062851,-0.002131,-0.030893,0.105381,0.143701,-0.0479
1,0.007842,-8.2E-05,-0.045324,-0.035783,1.526287,0.000114,-0.002131,-0.030893,0.022371,0.143701,-0.0479,0.249082
2,-8.2E-05,2E-06,-0.035783,0.019224,1.553923,0.001905,-0.030893,0.022371,0.013848,-0.0479,0.249082,-0.03832
3,2E-06,-0.003107,0.019224,0.123286,1.602783,-0.000431,0.022371,0.013848,-0.027697,0.249082,-0.03832,9.608819
0,5E-06,0.007842,0.092335,-0.045324,1.544755,0.000184,-0.062851,-0.002131,-0.030893,0.105381,0.143701,-0.0479
1,0.007842,-8.2E-05,-0.045324,-0.035783,1.526694,0.000114,-0.002131,-0.030893,0.022371,0.143701,-0.0479,0.249082
2,-8.2E-05,2E-06,-0.035783,0.019224,1.555505,0.001905,-0.030893,0.022371,0.013848,-0.0479,0.249082,-0.03832
3,2E-06,-0.003107,0.019224,0.123286,1.59081,-0.000431,0.022371,0.013848,-0.027697,0.249082,-0.03832,9.608819
0,5E-06,0.007842,0.092335,-0.045324,1.54503,0.000184,-0.062851,-0.002131,-0.030893,0.105381,0.143701,-0.0479
1,0.007842,-8.2E-05,-0.045324,-0.035783,1.529727,0.000114,-0.002131,-0.030893,0.022371,0.143701,-0.0479,0.249082
2,-8.2E-05,2E-06,-0.035783,0.019224,1.556943,0.001905,-0.030893,0.022371,0.013848,-0.0479,0.249082,-0.03832
3,2E-06,-0.003107,0.019224,0.123286,1.576381,-0.000431,0.022371,0.013848,-0.027697,0.249082,-0.03832,9.608819
0,5E-06,0.007842,0.092335,-0.045324,1.54503,0.000184,-0.062851,-0.002131,-0.030893,0.105381,0.143701,-0.0479
1,0.007842,-8.2E-05,-0.045324,-0.035783,1.532399,0.000114,-0.002131,-0.030893,0.022371,0.143701,-0.0479,0.249082
2,-8.2E-05,2E-06,-0.035783,0.019224,1.558812,0.001905,-0.030893,0.022371,0.013848,-0.0479,0.249082,-0.03832
3,2E-06,-0.003107,0.019224,0.123286,1.5617,-0.000431,0.022371,0.013848,-0.027697,0.249082,-0.03832,9.608819
0,5E-06,0.007842,0.092335,-0.045324,1.544155,0.000184,-0.062851,-0.002131,-0.030893,0.105381,0.143701,-0.0479
1,0.007842,-8.2E-05,-0.045324,-0.035783,1.53651,0.000114,-0.002131,-0.030893,0.022371,0.143701,-0.0479,0.249082
2,-8.2E-05,2E-06,-0.035783,0.019224,1.559519,0.001905,-0.030893,0.022371,0.013848,-0.0479,0.249082,-0.03832
3,2E-06,-0.003107,0.019224,0.123286,1.547763,-0.000431,0.022371,0.013848,-0.027697,0.249082,-0.03832,9.608819
0,5E-06,0.007842,0.092335,-0.045324,1.542861,0.000184,-0.062851,-0.002131,-0.030893,0.105381,0.143701,-0.0479
1,0.007842,-8.2E-05,-0.045324,-0.035783,1.538535,0.000114,-0.002131,-0.030893,0.022371,0.143701,-0.0479,0.249082
2,-8.2E-05,2E-06,-0.035783,0.019224,1.559316,0.001905,-0.030893,0.022371,0.013848,-0.0479,0.249082,-0.03832
3,2E-06,-0.003107,0.019224,0.123286,1.53609,-0.000431,0.022371,0.013848,-0.027697,0.249082,-0.03832,9.608819
0,5E-06,0.007842,0.092335,-0.045324,1.54098,0.000184,-0.062851,-0.002131,-0.030893,0.105381,0.143701,-0.0479
1,0.007842,-8.2E-05,-0.045324,-0.035783,1.540357,0.000114,-0.002131,-0.030893,0.022371,0.143701,-0.0479,0.249082
2,-8.2E-05,2E-06,-0.035783,0.019224,1.559364,0.001905,-0.030893,0.022371,0.013848,-0.0479,0.249082,-0.03832
3,2E-06,-0.003107,0.019224,0.123286,1.528288,-0.000431,0.022371,0.013848,-0.027697,0.249082,-0.03832,9.608819
0,5E-06,0.007842,0.092335,-0.045324,1.539386,0.000184,-0.062851,-0.002131,-0.030893,0.105381,0.143701,-0.0479
1,0.007842,-8.2E-05,-0.045324,-0.035783,1.540764,0.000114,-0.002131,-0.030893,0.022371,0.143701,-0.0479,0.249082
2,-8.2E-05,2E-06,-0.035783,0.019224,1.557698,0.001905,-0.030893,0.022371,0.013848,-0.0479,0.249082,-0.03832
3,2E-06,-0.003107,0.019224,0.123286,1.524813,-0.000431,0.022371,0.013848,-0.027697,0.249082,-0.03832,9.608819
0,5E-06,0.007842,0.092335,-0.045324,1.537468,0.000184,-0.062851,-0.002131,-0.030893,0.105381,0.143701,-0.0479
1,0.007842,-8.2E-05,-0.045324,-0.035783,1.539901,0.000114,-0.002131,-0.030893,0.022371,0.143701,-0.0479,0.249082
2,-8.2E-05,2E-06,-0.035783,0.019224,1.554726,0.001905,-0.030893,0.022371,0.013848,-0.0479,0.249082,-0.03832
3,2E-06,-0.003107,0.019224,0.123286,1.526946,-0.000431,0.022371,0.013848,-0.027697,0.249082,-0.03832,9.608819
0,5E-06,0.007842,0.092335,-0.045324,1.53476,0.000184,-0.062851,-0.002131,-0.030893,0.105381,0.143701,-0.0479
1,0.007842,-8.2E-05,-0.045324,-0.035783,1.536761,0.000114,-0.002131,-0.030893,0.022371,0.143701,-0.0479,0.249082
2,-8.2E-05,2E-06,-0.035783,0.019224,1.551634,0.001905,-0.030893,0.022371,0.013848,-0.0479,0.249082,-0.03832
3,2E-06,-0.003107,0.019224,0.123286,1.533729,-0.000431,0.022371,0.013848,-0.027697,0.249082,-0.03832,9.608819
0,5E-06,0.007842,0.092335,-0.045324,1.531392,0.000184,-0.062851,-0.002131,-0.030893,0.105381,0.143701,-0.0479
1,0.007842,-8.2E-05,-0.045324,-0.035783,1.532974,0.000114,-0.002131,-0.030893,0.022371,0.143701,-0.0479,0.249082
2,-8.2E-05,2E-06,-0.035783,0.019224,1.547679,0.001905,-0.030893,0.022371,0.013848,-0.0479,0.249082,-0.03832
3,2E-06,-0.003107,0.019224,0.123286,1.543041,-0.000431,0.022371,0.013848,-0.027697,0.249082,-0.03832,9.608819
0,5E-06,0.007842,0.092335,-0.045324,1.52812,0.000184,-0.062851,-0.002131,-0.030893,0.105381,0.143701,-0.0479
1,0.007842,-8.2E-05,-0.045324,-0.035783,1.530134,0.000114,-0.002131,-0.030893,0.022371,0.143701,-0.0479,0.249082
2,-8.2E-05,2E-06,-0.035783,0.019224,1.542478,0.001905,-0.030893,0.022371,0.013848,-0.0479,0.249082,-0.03832
3,2E-06,-0.003107,0.019224,0.123286,1.553419,-0.000431,0.022371,0.013848,-0.027697,0.249082,-0.03832,9.608819
0,5E-06,0.007842,0.092335,-0.045324,1.52377,0.000184,-0.062851,-0.002131,-0.030893,0.105381,0.143701,-0.0479
1,0.007842,-8.2E-05,-0.045324,-0.035783,1.526994,0.000114,-0.002131,-0.030893,0.022371,0.143701,-0.0479,0.249082
2,-8.2E-05,2E-06,-0.035783,0.019224,1.536845,0.001905,-0.030893,0.022371,0.013848,-0.0479,0.249082,-0.03832
3,2E-06,-0.003107,0.019224,0.123286,1.564085,-0.000431,0.022371,0.013848,-0.027697,0.249082,-0.03832,9.608819
0,5E-06,0.007842,0.092335,-0.045324,1.521733,0.000184,-0.062851,-0.002131,-0.030893,0.105381,0.143701,-0.0479
1,0.007842,-8.2E-05,-0.045324,-0.035783,1.52516,0.000114,-0.002131,-0.030893,0.022371,0.143701,-0.0479,0.249082
2,-8.2E-05,2E-06,-0.035783,0.019224,1.531452,0.001905,-0.030893,0.022371,0.013848,-0.0479,0.249082,-0.03832
3,2E-06,-0.003107,0.019224,0.123286,1.575458,-0.000431,0.022371,0.013848,-0.027697,0.249082,-0.03832,9.608819
0,5E-06,0.007842,0.092335,-0.045324,1.519623,0.000184,-0.062851,-0.002131,-0.030893,0.105381,0.143701,-0.0479
1,0.007842,-8.2E-05,-0.045324,-0.035783,1.524106,0.000114,-0.002131,-0.030893,0.022371,0.143701,-0.0479,0.249082
2,-8.2E-05,2E-06,-0.035783,0.019224,1.526179,0.001905,-0.030893,0.022371,0.013848,-0.0479,0.249082,-0.03832
3,2E-06,-0.003107,0.019224,0.123286,1.585022,-0.000431,0.022371,0.013848,-0.027697,0.249082,-0.03832,9.608819
0,5E-06,0.007842,0.092335,-0.045324,1.518317,0.000184,-0.062851,-0.002131,-0.030893,0.105381,0.143701,-0.0479
1,0.007842,-8.2E-05,-0.045324,-0.035783,1.523974,0.000114,-0.002131,-0.030893,0.022371,0.143701,-0.0479,0.249082
2,-8.2E-05,2E-06,-0.035783,0.019224,1.521098,0.001905,-0.030893,0.022371,0.013848,-0.0479,0.249082,-0.03832
3,2E-06,-0.003107,0.019224,0.123286,1.59226,-0.000431,0.022371,0.013848,-0.027697,0.249082,-0.03832,9.608819
0,5E-06,0.007842,0.092335,-0.045324,1.518042,0.000184,-0.062851,-0.002131,-0.030893,0.105381,0.143701,-0.0479
1,0.007842,-8.2E-05,-0.045324,-0.035783,1.524777,0.000114,-0.002131,-0.030893,0.022371,0.143701,-0.0479,0.249082
2,-8.2E-05,2E-06,-0.035783,0.019224,1.516856,0.001905,-0.030893,0.022371,0.013848,-0.0479,0.249082,-0.03832
3,2E-06,-0.003107,0.019224,0.123286,1.597234,-0.000431,0.022371,0.013848,-0.027697,0.249082,-0.03832,9.608819
0,5E-06,0.007842,0.092335,-0.045324,1.519264,0.000184,-0.062851,-0.002131,-0.030893,0.105381,0.143701,-0.0479
1,0.007842,-8.2E-05,-0.045324,-0.035783,1.526766,0.000114,-0.002131,-0.030893,0.022371,0.143701,-0.0479,0.249082
2,-8.2E-05,2E-06,-0.035783,0.019224,1.51483,0.001905,-0.030893,0.022371,0.013848,-0.0479,0.249082,-0.03832
3,2E-06,-0.003107,0.019224,0.123286,1.598156,-0.000431,0.022371,0.013848,-0.027697,0.249082,-0.03832,9.608819
0,5E-06,0.007842,0.092335,-0.045324,1.520798,0.000184,-0.062851,-0.002131,-0.030893,0.105381,0.143701,-0.0479
1,0.007842,-8.2E-05,-0.045324,-0.035783,1.5283,0.000114,-0.002131,-0.030893,0.022371,0.143701,-0.0479,0.249082
2,-8.2E-05,2E-06,-0.035783,0.019224,1.515106,0.001905,-0.030893,0.022371,0.013848,-0.0479,0.249082,-0.03832
3,2E-06,-0.003107,0.019224,0.123286,1.596539,-0.000431,0.022371,0.013848,-0.027697,0.249082,-0.03832,9.608819
0,5E-06,0.007842,0.092335,-0.045324,1.521865,0.000184,-0.062851,-0.002131,-0.030893,0.105381,0.143701,-0.0479
1,0.007842,-8.2E-05,-0.045324,-0.035783,1.528996,0.000114,-0.002131,-0.030893,0.022371,0.143701,-0.0479,0.249082
2,-8.2E-05,2E-06,-0.035783,0.019224,1.516915,0.001905,-0.030893,0.022371,0.013848,-0.0479,0.249082,-0.03832
3,2E-06,-0.003107,0.019224,0.123286,1.592596,-0.000431,0.022371,0.013848,-0.027697,0.249082,-0.03832,9.608819
0,5E-06,0.007842,0.092335,-0.045324,1.523027,0.000184,-0.062851,-0.002131,-0.030893,0.105381,0.143701,-0.0479
1,0.007842,-8.2E-05,-0.045324,-0.035783,1.529427,0.000114,-0.002131,-0.030893,0.022371,0.143701,-0.0479,0.249082
2,-8.2E-05,2E-06,-0.035783,0.019224,1.520475,0.001905,-0.030893,0.022371,0.013848,-0.0479,0.249082,-0.03832
3,2E-06,-0.003107,0.019224,0.123286,1.588665,-0.000431,0.022371,0.013848,-0.027697,0.249082,-0.03832,9.608819
0,5E-06,0.007842,0.092335,-0.045324,1.523806,0.000184,-0.062851,-0.002131,-0.030893,0.105381,0.143701,-0.0479
1,0.007842,-8.2E-05,-0.045324,-0.035783,1.529259,0.000114,-0.002131,-0.030893,0.022371,0.143701,-0.0479,0.249082
2,-8.2E-05,2E-06,-0.035783,0.019224,1.526791,0.001905,-0.030893,0.022371,0.013848,-0.0479,0.249082,-0.03832
3,2E-06,-0.003107,0.019224,0.123286,1.583596,-0.000431,0.022371,0.013848,-0.027697,0.249082,-0.03832,9.608819
0,5E-06,0.007842,0.092335,-0.045324,1.524405,0.000184,-0.062851,-0.002131,-0.030893,0.105381,0.143701,-0.0479
1,0.007842,-8.2E-05,-0.045324,-0.035783,1.529499,0.000114,-0.002131,-0.030893,0.022371,0.143701,-0.0479,0.249082
2,-8.2E-05,2E-06,-0.035783,0.019224,1.533993,0.001905,-0.030893,0.022371,0.013848,-0.0479,0.249082,-0.03832
3,2E-06,-0.003107,0.019224,0.123286,1.57764,-0.000431,0.022371,0.013848,-0.027697,0.249082,-0.03832,9.608819
0,5E-06,0.007842,0.092335,-0.045324,1.525376,0.000184,-0.062851,-0.002131,-0.030893,0.105381,0.143701,-0.0479
1,0.007842,-8.2E-05,-0.045324,-0.035783,1.530242,0.000114,-0.002131,-0.030893,0.022371,0.143701,-0.0479,0.249082
2,-8.2E-05,2E-06,-0.035783,0.019224,1.542766,0.001905,-0.030893,0.022371,0.013848,-0.0479,0.249082,-0.03832
3,2E-06,-0.003107,0.019224,0.123286,1.571815,-0.000431,0.022371,0.013848,-0.027697,0.249082,-0.03832,9.608819
0,5E-06,0.007842,0.092335,-0.045324,1.526287,0.000184,-0.062851,-0.002131,-0.030893,0.105381,0.143701,-0.0479
1,0.007842,-8.2E-05,-0.045324,-0.035783,1.531321,0.000114,-0.002131,-0.030893,0.022371,0.143701,-0.0479,0.249082
2,-8.2E-05,2E-06,-0.035783,0.019224,1.552029,0.001905,-0.030893,0.022371,0.013848,-0.0479,0.249082,-0.03832
3,2E-06,-0.003107,0.019224,0.123286,1.56641,-0.000431,0.022371,0.013848,-0.027697,0.249082,-0.03832,9.608819
0,5E-06,0.007842,0.092335,-0.045324,1.52667,0.000184,-0.062851,-0.002131,-0.030893,0.105381,0.143701,-0.0479
1,0.007842,-8.2E-05,-0.045324,-0.035783,1.531464,0.000114,-0.002131,-0.030893,0.022371,0.143701,-0.0479,0.249082
2,-8.2E-05,2E-06,-0.035783,0.019224,1.56188,0.001905,-0.030893,0.022371,0.013848,-0.0479,0.249082,-0.03832
3,2E-06,-0.003107,0.019224,0.123286,1.560814,-0.000431,0.022371,0.013848,-0.027697,0.249082,-0.03832,9.608819
0,5E-06,0.007842,0.092335,-0.045324,1.526311,0.000184,-0.062851,-0.002131,-0.030893,0.105381,0.143701,-0.0479
1,0.007842,-8.2E-05,-0.045324,-0.035783,1.531356,0.000114,-0.002131,-0.030893,0.022371,0.143701,-0.0479,0.249082
2,-8.2E-05,2E-06,-0.035783,0.019224,1.571228,0.001905,-0.030893,0.022371,0.013848,-0.0479,0.249082,-0.03832
3,2E-06,-0.003107,0.019224,0.123286,1.556907,-0.000431,0.022371,0.013848,-0.027697,0.249082,-0.03832,9.608819
0,5E-06,0.007842,0.092335,-0.045324,1.525736,0.000184,-0.062851,-0.002131,-0.030893,0.105381,0.143701,-0.0479
1,0.007842,-8.2E-05,-0.045324,-0.035783,1.530769,0.000114,-0.002131,-0.030893,0.022371,0.143701,-0.0479,0.249082
2,-8.2E-05,2E-06,-0.035783,0.019224,1.578059,0.001905,-0.030893,0.022371,0.013848,-0.0479,0.249082,-0.03832
3,2E-06,-0.003107,0.019224,0.123286,1.555265,-0.000431,0.022371,0.013848,-0.027697,0.249082,-0.03832,9.608819
0,5E-06,0.007842,0.092335,-0.045324,1.526874,0.000184,-0.062851,-0.002131,-0.030893,0.105381,0.143701,-0.0479
1,0.007842,-8.2E-05,-0.045324,-0.035783,1.530422,0.000114,-0.002131,-0.030893,0.022371,0.143701,-0.0479,0.249082
2,-8.2E-05,2E-06,-0.035783,0.019224,1.582865,0.001905,-0.030893,0.022371,0.013848,-0.0479,0.249082,-0.03832
3,2E-06,-0.003107,0.019224,0.123286,1.55463,-0.000431,0.022371,0.013848,-0.027697,0.249082,-0.03832,9.608819
0,5E-06,0.007842,0.092335,-0.045324,1.527078,0.000184,-0.062851,-0.002131,-0.030893,0.105381,0.143701,-0.0479
1,0.007842,-8.2E-05,-0.045324,-0.035783,1.529846,0.000114,-0.002131,-0.030893,0.022371,0.143701,-0.0479,0.249082
2,-8.2E-05,2E-06,-0.035783,0.019224,1.584207,0.001905,-0.030893,0.022371,0.013848,-0.0479,0.249082,-0.03832
3,2E-06,-0.003107,0.019224,0.123286,1.555397,-0.000431,0.022371,0.013848,-0.027697,0.249082,-0.03832,9.608819
0,5E-06,0.007842,0.092335,-0.045324,1.526718,0.000184,-0.062851,-0.002131,-0.030893,0.105381,0.143701,-0.0479
1,0.007842,-8.2E-05,-0.045324,-0.035783,1.529775,0.000114,-0.002131,-0.030893,0.022371,0.143701,-0.0479,0.249082
2,-8.2E-05,2E-06,-0.035783,0.019224,1.582002,0.001905,-0.030893,0.022371,0.013848,-0.0479,0.249082,-0.03832
3,2E-06,-0.003107,0.019224,0.123286,1.55753,-0.000431,0.022371,0.013848,-0.027697,0.249082,-0.03832,9.608819
0,5E-06,0.007842,0.092335,-0.045324,1.527305,0.000184,-0.062851,-0.002131,-0.030893,0.105381,0.143701,-0.0479
1,0.007842,-8.2E-05,-0.045324,-0.035783,1.529271,0.000114,-0.002131,-0.030893,0.022371,0.143701,-0.0479,0.249082
2,-8.2E-05,2E-06,-0.035783,0.019224,1.57613,0.001905,-0.030893,0.022371,0.013848,-0.0479,0.249082,-0.03832
3,2E-06,-0.003107,0.019224,0.123286,1.561509,-0.000431,0.022371,0.013848,-0.027697,0.249082,-0.03832,9.608819
0,5E-06,0.007842,0.092335,-0.045324,1.527234,0.000184,-0.062851,-0.002131,-0.030893,0.105381,0.143701,-0.0479
1,0.007842,-8.2E-05,-0.045324,-0.035783,1.527413,0.000114,-0.002131,-0.030893,0.022371,0.143701,-0.0479,0.249082
2,-8.2E-05,2E-06,-0.035783,0.019224,1.566554,0.001905,-0.030893,0.022371,0.013848,-0.0479,0.249082,-0.03832
3,2E-06,-0.003107,0.019224,0.123286,1.568172,-0.000431,0.022371,0.013848,-0.027697,0.249082,-0.03832,9.608819
0,5E-06,0.007842,0.092335,-0.045324,1.52679,0.000184,-0.062851,-0.002131,-0.030893,0.105381,0.143701,-0.0479
1,0.007842,-8.2E-05,-0.045324,-0.035783,1.526922,0.000114,-0.002131,-0.030893,0.022371,0.143701,-0.0479,0.249082
2,-8.2E-05,2E-06,-0.035783,0.019224,1.554654,0.001905,-0.030893,0.022371,0.013848,-0.0479,0.249082,-0.03832
3,2E-06,-0.003107,0.019224,0.123286,1.576369,-0.000431,0.022371,0.013848,-0.027697,0.249082,-0.03832,9.608819
0,5E-06,0.007842,0.092335,-0.045324,1.527713,0.000184,-0.062851,-0.002131,-0.030893,0.105381,0.143701,-0.0479
1,0.007842,-8.2E-05,-0.045324,-0.035783,1.528193,0.000114,-0.002131,-0.030893,0.022371,0.143701,-0.0479,0.249082
2,-8.2E-05,2E-06,-0.035783,0.019224,1.541627,0.001905,-0.030893,0.022371,0.013848,-0.0479,0.249082,-0.03832
3,2E-06,-0.003107,0.019224,0.123286,1.58495,-0.000431,0.022371,0.013848,-0.027697,0.249082,-0.03832,9.608819
0,5E-06,0.007842,0.092335,-0.045324,1.528528,0.000184,-0.062851,-0.002131,-0.030893,0.105381,0.143701,-0.0479
1,0.007842,-8.2E-05,-0.045324,-0.035783,1.531141,0.000114,-0.002131,-0.030893,0.022371,0.143701,-0.0479,0.249082
2,-8.2E-05,2E-06,-0.035783,0.019224,1.528708,0.001905,-0.030893,0.022371,0.013848,-0.0479,0.249082,-0.03832
3,2E-06,-0.003107,0.019224,0.123286,1.592272,-0.000431,0.022371,0.013848,-0.027697,0.249082,-0.03832,9.608819
0,5E-06,0.007842,0.092335,-0.045324,1.527641,0.000184,-0.062851,-0.002131,-0.030893,0.105381,0.143701,-0.0479
1,0.007842,-8.2E-05,-0.045324,-0.035783,1.533046,0.000114,-0.002131,-0.030893,0.022371,0.143701,-0.0479,0.249082
2,-8.2E-05,2E-06,-0.035783,0.019224,1.517718,0.001905,-0.030893,0.022371,0.013848,-0.0479,0.249082,-0.03832
3,2E-06,-0.003107,0.019224,0.123286,1.596754,-0.000431,0.022371,0.013848,-0.027697,0.249082,-0.03832,9.608819
0,5E-06,0.007842,0.092335,-0.045324,1.525892,0.000184,-0.062851,-0.002131,-0.030893,0.105381,0.143701,-0.0479
1,0.007842,-8.2E-05,-0.045324,-0.035783,1.534568,0.000114,-0.002131,-0.030893,0.022371,0.143701,-0.0479,0.249082
2,-8.2E-05,2E-06,-0.035783,0.019224,1.508011,0.001905,-0.030893,0.022371,0.013848,-0.0479,0.249082,-0.03832
3,2E-06,-0.003107,0.019224,0.123286,1.598876,-0.000431,0.022371,0.013848,-0.027697,0.249082,-0.03832,9.608819
0,5E-06,0.007842,0.092335,-0.045324,1.524897,0.000184,-0.062851,-0.002131,-0.030893,0.105381,0.143701,-0.0479
1,0.007842,-8.2E-05,-0.045324,-0.035783,1.535946,0.000114,-0.002131,-0.030893,0.022371,0.143701,-0.0479,0.249082
2,-8.2E-05,2E-06,-0.035783,0.019224,1.501875,0.001905,-0.030893,0.022371,0.013848,-0.0479,0.249082,-0.03832
3,2E-06,-0.003107,0.019224,0.123286,1.597881,-0.000431,0.022371,0.013848,-0.027697,0.249082,-0.03832,9.608819
0,5E-06,0.007842,0.092335,-0.045324,1.524501,0.000184,-0.062851,-0.002131,-0.030893,0.105381,0.143701,-0.0479
1,0.007842,-8.2E-05,-0.045324,-0.035783,1.536126,0.000114,-0.002131,-0.030893,0.022371,0.143701,-0.0479,0.249082
2,-8.2E-05,2E-06,-0.035783,0.019224,1.498232,0.001905,-0.030893,0.022371,0.013848,-0.0479,0.249082,-0.03832
3,2E-06,-0.003107,0.019224,0.123286,1.59262,-0.000431,0.022371,0.013848,-0.027697,0.249082,-0.03832,9.608819
0,5E-06,0.007842,0.092335,-0.045324,1.522824,0.000184,-0.062851,-0.002131,-0.030893,0.105381,0.143701,-0.0479
1,0.007842,-8.2E-05,-0.045324,-0.035783,1.536042,0.000114,-0.002131,-0.030893,0.022371,0.143701,-0.0479,0.249082
2,-8.2E-05,2E-06,-0.035783,0.019224,1.496614,0.001905,-0.030893,0.022371,0.013848,-0.0479,0.249082,-0.03832
3,2E-06,-0.003107,0.019224,0.123286,1.58314,-0.000431,0.022371,0.013848,-0.027697,0.249082,-0.03832,9.608819
0,5E-06,0.007842,0.092335,-0.045324,1.521601,0.000184,-0.062851,-0.002131,-0.030893,0.105381,0.143701,-0.0479
1,0.007842,-8.2E-05,-0.045324,-0.035783,1.535419,0.000114,-0.002131,-0.030893,0.022371,0.143701,-0.0479,0.249082
2,-8.2E-05,2E-06,-0.035783,0.019224,1.498064,0.001905,-0.030893,0.022371,0.013848,-0.0479,0.249082,-0.03832
3,2E-06,-0.003107,0.019224,0.123286,1.570689,-0.000431,0.022371,0.013848,-0.027697,0.249082,-0.03832,9.608819
0,5E-06,0.007842,0.092335,-0.045324,1.5219,0.000184,-0.062851,-0.002131,-0.030893,0.105381,0.143701,-0.0479
1,0.007842,-8.2E-05,-0.045324,-0.035783,1.535167,0.000114,-0.002131,-0.030893,0.022371,0.143701,-0.0479,0.249082
2,-8.2E-05,2E-06,-0.035783,0.019224,1.50323,0.001905,-0.030893,0.022371,0.013848,-0.0479,0.249082,-0.03832
3,2E-06,-0.003107,0.019224,0.123286,1.55753,-0.000431,0.022371,0.013848,-0.027697,0.249082,-0.03832,9.608819
0,5E-06,0.007842,0.092335,-0.045324,1.521493,0.000184,-0.062851,-0.002131,-0.030893,0.105381,0.143701,-0.0479
1,0.007842,-8.2E-05,-0.045324,-0.035783,1.533442,0.000114,-0.002131,-0.030893,0.022371,0.143701,-0.0479,0.249082
2,-8.2E-05,2E-06,-0.035783,0.019224,1.511115,0.001905,-0.030893,0.022371,0.013848,-0.0479,0.249082,-0.03832
3,2E-06,-0.003107,0.019224,0.123286,1.543916,-0.000431,0.022371,0.013848,-0.027697,0.249082,-0.03832,9.608819
0,5E-06,0.007842,0.092335,-0.045324,1.520582,0.000184,-0.062851,-0.002131,-0.030893,0.105381,0.143701,-0.0479
1,0.007842,-8.2E-05,-0.045324,-0.035783,1.530901,0.000114,-0.002131,-0.030893,0.022371,0.143701,-0.0479,0.249082
2,-8.2E-05,2E-06,-0.035783,0.019224,1.520403,0.001905,-0.030893,0.022371,0.013848,-0.0479,0.249082,-0.03832
3,2E-06,-0.003107,0.019224,0.123286,1.530074,-0.000431,0.022371,0.013848,-0.027697,0.249082,-0.03832,9.608819
0,5E-06,0.007842,0.092335,-0.045324,1.522608,0.000184,-0.062851,-0.002131,-0.030893,0.105381,0.143701,-0.0479
1,0.007842,-8.2E-05,-0.045324,-0.035783,1.5283,0.000114,-0.002131,-0.030893,0.022371,0.143701,-0.0479,0.249082
2,-8.2E-05,2E-06,-0.035783,0.019224,1.529811,0.001905,-0.030893,0.022371,0.013848,-0.0479,0.249082,-0.03832
3,2E-06,-0.003107,0.019224,0.123286,1.518965,-0.000431,0.022371,0.013848,-0.027697,0.249082,-0.03832,9.608819
0,5E-06,0.007842,0.092335,-0.045324,1.524645,0.000184,-0.062851,-0.002131,-0.030893,0.105381,0.143701,-0.0479
1,0.007842,-8.2E-05,-0.045324,-0.035783,1.525496,0.000114,-0.002131,-0.030893,0.022371,0.143701,-0.0479,0.249082
2,-8.2E-05,2E-06,-0.035783,0.019224,1.538271,0.001905,-0.030893,0.022371,0.013848,-0.0479,0.249082,-0.03832
3,2E-06,-0.003107,0.019224,0.123286,1.510132,-0.000431,0.022371,0.013848,-0.027697,0.249082,-0.03832,9.608819
0,5E-06,0.007842,0.092335,-0.045324,1.526095,0.000184,-0.062851,-0.002131,-0.030893,0.105381,0.143701,-0.0479
1,0.007842,-8.2E-05,-0.045324,-0.035783,1.522608,0.000114,-0.002131,-0.030893,0.022371,0.143701,-0.0479,0.249082
2,-8.2E-05,2E-06,-0.035783,0.019224,1.545786,0.001905,-0.030893,0.022371,0.013848,-0.0479,0.249082,-0.03832
3,2E-06,-0.003107,0.019224,0.123286,1.503361,-0.000431,0.022371,0.013848,-0.027697,0.249082,-0.03832,9.608819
0,5E-06,0.007842,0.092335,-0.045324,1.525496,0.000184,-0.062851,-0.002131,-0.030893,0.105381,0.143701,-0.0479
1,0.007842,-8.2E-05,-0.045324,-0.035783,1.519576,0.000114,-0.002131,-0.030893,0.022371,0.143701,-0.0479,0.249082
2,-8.2E-05,2E-06,-0.035783,0.019224,1.550411,0.001905,-0.030893,0.022371,0.013848,-0.0479,0.249082,-0.03832
3,2E-06,-0.003107,0.019224,0.123286,1.49858,-0.000431,0.022371,0.013848,-0.027697,0.249082,-0.03832,9.608819
0,5E-06,0.007842,0.092335,-0.045324,1.52365,0.000184,-0.062851,-0.002131,-0.030893,0.105381,0.143701,-0.0479
1,0.007842,-8.2E-05,-0.045324,-0.035783,1.516736,0.000114,-0.002131,-0.030893,0.022371,0.143701,-0.0479,0.249082
2,-8.2E-05,2E-06,-0.035783,0.019224,1.550807,0.001905,-0.030893,0.022371,0.013848,-0.0479,0.249082,-0.03832
3,2E-06,-0.003107,0.019224,0.123286,1.495895,-0.000431,0.022371,0.013848,-0.027697,0.249082,-0.03832,9.608819
0,5E-06,0.007842,0.092335,-0.045324,1.5225,0.000184,-0.062851,-0.002131,-0.030893,0.105381,0.143701,-0.0479
1,0.007842,-8.2E-05,-0.045324,-0.035783,1.514854,0.000114,-0.002131,-0.030893,0.022371,0.143701,-0.0479,0.249082
2,-8.2E-05,2E-06,-0.035783,0.019224,1.545869,0.001905,-0.030893,0.022371,0.013848,-0.0479,0.249082,-0.03832
3,2E-06,-0.003107,0.019224,0.123286,1.495835,-0.000431,0.022371,0.013848,-0.027697,0.249082,-0.03832,9.608819
0,5E-06,0.007842,0.092335,-0.045324,1.522668,0.000184,-0.062851,-0.002131,-0.030893,0.105381,0.143701,-0.0479
1,0.007842,-8.2E-05,-0.045324,-0.035783,1.514003,0.000114,-0.002131,-0.030893,0.022371,0.143701,-0.0479,0.249082
2,-8.2E-05,2E-06,-0.035783,0.019224,1.53597,0.001905,-0.030893,0.022371,0.013848,-0.0479,0.249082,-0.03832
3,2E-06,-0.003107,0.019224,0.123286,1.49949,-0.000431,0.022371,0.013848,-0.027697,0.249082,-0.03832,9.608819
0,5E-06,0.007842,0.092335,-0.045324,1.521625,0.000184,-0.062851,-0.002131,-0.030893,0.105381,0.143701,-0.0479
1,0.007842,-8.2E-05,-0.045324,-0.035783,1.513596,0.000114,-0.002131,-0.030893,0.022371,0.143701,-0.0479,0.249082
2,-8.2E-05,2E-06,-0.035783,0.019224,1.522632,0.001905,-0.030893,0.022371,0.013848,-0.0479,0.249082,-0.03832
3,2E-06,-0.003107,0.019224,0.123286,1.50716,-0.000431,0.022371,0.013848,-0.027697,0.249082,-0.03832,9.608819
0,5E-06,0.007842,0.092335,-0.045324,1.523243,0.000184,-0.062851,-0.002131,-0.030893,0.105381,0.143701,-0.0479
1,0.007842,-8.2E-05,-0.045324,-0.035783,1.514531,0.000114,-0.002131,-0.030893,0.022371,0.143701,-0.0479,0.249082
2,-8.2E-05,2E-06,-0.035783,0.019224,1.506202,0.001905,-0.030893,0.022371,0.013848,-0.0479,0.249082,-0.03832
3,2E-06,-0.003107,0.019224,0.123286,1.518126,-0.000431,0.022371,0.013848,-0.027697,0.249082,-0.03832,9.608819
0,5E-06,0.007842,0.092335,-0.045324,1.526011,0.000184,-0.062851,-0.002131,-0.030893,0.105381,0.143701,-0.0479
1,0.007842,-8.2E-05,-0.045324,-0.035783,1.516376,0.000114,-0.002131,-0.030893,0.022371,0.143701,-0.0479,0.249082
2,-8.2E-05,2E-06,-0.035783,0.019224,1.488237,0.001905,-0.030893,0.022371,0.013848,-0.0479,0.249082,-0.03832
3,2E-06,-0.003107,0.019224,0.123286,1.530014,-0.000431,0.022371,0.013848,-0.027697,0.249082,-0.03832,9.608819
0,5E-06,0.007842,0.092335,-0.045324,1.526778,0.000184,-0.062851,-0.002131,-0.030893,0.105381,0.143701,-0.0479
1,0.007842,-8.2E-05,-0.045324,-0.035783,1.51779,0.000114,-0.002131,-0.030893,0.022371,0.143701,-0.0479,0.249082
2,-8.2E-05,2E-06,-0.035783,0.019224,1.470764,0.001905,-0.030893,0.022371,0.013848,-0.0479,0.249082,-0.03832
3,2E-06,-0.003107,0.019224,0.123286,1.541603,-0.000431,0.022371,0.013848,-0.027697,0.249082,-0.03832,9.608819
0,5E-06,0.007842,0.092335,-0.045324,1.527437,0.000184,-0.062851,-0.002131,-0.030893,0.105381,0.143701,-0.0479
1,0.007842,-8.2E-05,-0.045324,-0.035783,1.518234,0.000114,-0.002131,-0.030893,0.022371,0.143701,-0.0479,0.249082
2,-8.2E-05,2E-06,-0.035783,0.019224,1.455712,0.001905,-0.030893,0.022371,0.013848,-0.0479,0.249082,-0.03832
3,2E-06,-0.003107,0.019224,0.123286,1.550064,-0.000431,0.022371,0.013848,-0.027697,0.249082,-0.03832,9.608819
0,5E-06,0.007842,0.092335,-0.045324,1.528444,0.000184,-0.062851,-0.002131,-0.030893,0.105381,0.143701,-0.0479
1,0.007842,-8.2E-05,-0.045324,-0.035783,1.519168,0.000114,-0.002131,-0.030893,0.022371,0.143701,-0.0479,0.249082
2,-8.2E-05,2E-06,-0.035783,0.019224,1.443608,0.001905,-0.030893,0.022371,0.013848,-0.0479,0.249082,-0.03832
3,2E-06,-0.003107,0.019224,0.123286,1.554198,-0.000431,0.022371,0.013848,-0.027697,0.249082,-0.03832,9.608819
0,5E-06,0.007842,0.092335,-0.045324,1.527473,0.000184,-0.062851,-0.002131,-0.030893,0.105381,0.143701,-0.0479
1,0.007842,-8.2E-05,-0.045324,-0.035783,1.521637,0.000114,-0.002131,-0.030893,0.022371,0.143701,-0.0479,0.249082
2,-8.2E-05,2E-06,-0.035783,0.019224,1.435171,0.001905,-0.030893,0.022371,0.013848,-0.0479,0.249082,-0.03832
3,2E-06,-0.003107,0.019224,0.123286,1.555097,-0.000431,0.022371,0.013848,-0.027697,0.249082,-0.03832,9.608819
0,5E-06,0.007842,0.092335,-0.045324,1.52679,0.000184,-0.062851,-0.002131,-0.030893,0.105381,0.143701,-0.0479
1,0.007842,-8.2E-05,-0.045324,-0.035783,1.523555,0.000114,-0.002131,-0.030893,0.022371,0.143701,-0.0479,0.249082
2,-8.2E-05,2E-06,-0.035783,0.019224,1.430389,0.001905,-0.030893,0.022371,0.013848,-0.0479,0.249082,-0.03832
3,2E-06,-0.003107,0.019224,0.123286,1.552341,-0.000431,0.022371,0.013848,-0.027697,0.249082,-0.03832,9.608819
0,5E-06,0.007842,0.092335,-0.045324,1.525664,0.000184,-0.062851,-0.002131,-0.030893,0.105381,0.143701,-0.0479
1,0.007842,-8.2E-05,-0.045324,-0.035783,1.524106,0.000114,-0.002131,-0.030893,0.022371,0.143701,-0.0479,0.249082
2,-8.2E-05,2E-06,-0.035783,0.019224,1.428795,0.001905,-0.030893,0.022371,0.013848,-0.0479,0.249082,-0.03832
3,2E-06,-0.003107,0.019224,0.123286,1.546037,-0.000431,0.022371,0.013848,-0.027697,0.249082,-0.03832,9.608819
0,5E-06,0.007842,0.092335,-0.045324,1.524633,0.000184,-0.062851,-0.002131,-0.030893,0.105381,0.143701,-0.0479
1,0.007842,-8.2E-05,-0.045324,-0.035783,1.525041,0.000114,-0.002131,-0.030893,0.022371,0.143701,-0.0479,0.249082
2,-8.2E-05,2E-06,-0.035783,0.019224,1.432858,0.001905,-0.030893,0.022371,0.013848,-0.0479,0.249082,-0.03832
3,2E-06,-0.003107,0.019224,0.123286,1.53645,-0.000431,0.022371,0.013848,-0.027697,0.249082,-0.03832,9.608819
0,5E-06,0.007842,0.092335,-0.045324,1.525065,0.000184,-0.062851,-0.002131,-0.030893,0.105381,0.143701,-0.0479
1,0.007842,-8.2E-05,-0.045324,-0.035783,1.525904,0.000114,-0.002131,-0.030893,0.022371,0.143701,-0.0479,0.249082
2,-8.2E-05,2E-06,-0.035783,0.019224,1.442529,0.001905,-0.030893,0.022371,0.013848,-0.0479,0.249082,-0.03832
3,2E-06,-0.003107,0.019224,0.123286,1.525161,-0.000431,0.022371,0.013848,-0.027697,0.249082,-0.03832,9.608819
0,5E-06,0.007842,0.092335,-0.045324,1.524837,0.000184,-0.062851,-0.002131,-0.030893,0.105381,0.143701,-0.0479
1,0.007842,-8.2E-05,-0.045324,-0.035783,1.526407,0.000114,-0.002131,-0.030893,0.022371,0.143701,-0.0479,0.249082
2,-8.2E-05,2E-06,-0.035783,0.019224,1.455413,0.001905,-0.030893,0.022371,0.013848,-0.0479,0.249082,-0.03832
3,2E-06,-0.003107,0.019224,0.123286,1.512733,-0.000431,0.022371,0.013848,-0.027697,0.249082,-0.03832,9.608819
0,5E-06,0.007842,0.092335,-0.045324,1.52425,0.000184,-0.062851,-0.002131,-0.030893,0.105381,0.143701,-0.0479
1,0.007842,-8.2E-05,-0.045324,-0.035783,1.526191,0.000114,-0.002131,-0.030893,0.022371,0.143701,-0.0479,0.249082
2,-8.2E-05,2E-06,-0.035783,0.019224,1.470884,0.001905,-0.030893,0.022371,0.013848,-0.0479,0.249082,-0.03832
3,2E-06,-0.003107,0.019224,0.123286,1.500389,-0.000431,0.022371,0.013848,-0.027697,0.249082,-0.03832,9.608819
0,5E-06,0.007842,0.092335,-0.045324,1.524321,0.000184,-0.062851,-0.002131,-0.030893,0.105381,0.143701,-0.0479
1,0.007842,-8.2E-05,-0.045324,-0.035783,1.525592,0.000114,-0.002131,-0.030893,0.022371,0.143701,-0.0479,0.249082
2,-8.2E-05,2E-06,-0.035783,0.019224,1.488489,0.001905,-0.030893,0.022371,0.013848,-0.0479,0.249082,-0.03832
3,2E-06,-0.003107,0.019224,0.123286,1.4894,-0.000431,0.022371,0.013848,-0.027697,0.249082,-0.03832,9.608819
0,5E-06,0.007842,0.092335,-0.045324,1.524513,0.000184,-0.062851,-0.002131,-0.030893,0.105381,0.143701,-0.0479
1,0.007842,-8.2E-05,-0.045324,-0.035783,1.524501,0.000114,-0.002131,-0.030893,0.022371,0.143701,-0.0479,0.249082
2,-8.2E-05,2E-06,-0.035783,0.019224,1.505231,0.001905,-0.030893,0.022371,0.013848,-0.0479,0.249082,-0.03832
3,2E-06,-0.003107,0.019224,0.123286,1.481131,-0.000431,0.022371,0.013848,-0.027697,0.249082,-0.03832,9.608819
0,5E-06,0.007842,0.092335,-0.045324,1.524537,0.000184,-0.062851,-0.002131,-0.030893,0.105381,0.143701,-0.0479
1,0.007842,-8.2E-05,-0.045324,-0.035783,1.523794,0.000114,-0.002131,-0.030893,0.022371,0.143701,-0.0479,0.249082
2,-8.2E-05,2E-06,-0.035783,0.019224,1.521218,0.001905,-0.030893,0.022371,0.013848,-0.0479,0.249082,-0.03832
3,2E-06,-0.003107,0.019224,0.123286,1.474935,-0.000431,0.022371,0.013848,-0.027697,0.249082,-0.03832,9.608819
0,5E-06,0.007842,0.092335,-0.045324,1.524933,0.000184,-0.062851,-0.002131,-0.030893,0.105381,0.143701,-0.0479
1,0.007842,-8.2E-05,-0.045324,-0.035783,1.52383,0.000114,-0.002131,-0.030893,0.022371,0.143701,-0.0479,0.249082
2,-8.2E-05,2E-06,-0.035783,0.019224,1.534173,0.001905,-0.030893,0.022371,0.013848,-0.0479,0.249082,-0.03832
3,2E-06,-0.003107,0.019224,0.123286,1.471663,-0.000431,0.022371,0.013848,-0.027697,0.249082,-0.03832,9.608819
0,5E-06,0.007842,0.092335,-0.045324,1.524705,0.000184,-0.062851,-0.002131,-0.030893,0.105381,0.143701,-0.0479
1,0.007842,-8.2E-05,-0.045324,-0.035783,1.52407,0.000114,-0.002131,-0.030893,0.022371,0.143701,-0.0479,0.249082
2,-8.2E-05,2E-06,-0.035783,0.019224,1.543916,0.001905,-0.030893,0.022371,0.013848,-0.0479,0.249082,-0.03832
3,2E-06,-0.003107,0.019224,0.123286,1.471363,-0.000431,0.022371,0.013848,-0.027697,0.249082,-0.03832,9.608819
0,5E-06,0.007842,0.092335,-0.045324,1.524885,0.000184,-0.062851,-0.002131,-0.030893,0.105381,0.143701,-0.0479
1,0.007842,-8.2E-05,-0.045324,-0.035783,1.523974,0.000114,-0.002131,-0.030893,0.022371,0.143701,-0.0479,0.249082
2,-8.2E-05,2E-06,-0.035783,0.019224,1.549033,0.001905,-0.030893,0.022371,0.013848,-0.0479,0.249082,-0.03832
3,2E-06,-0.003107,0.019224,0.123286,1.474407,-0.000431,0.022371,0.013848,-0.027697,0.249082,-0.03832,9.608819
0,5E-06,0.007842,0.092335,-0.045324,1.525915,0.000184,-0.062851,-0.002131,-0.030893,0.105381,0.143701,-0.0479
1,0.007842,-8.2E-05,-0.045324,-0.035783,1.52437,0.000114,-0.002131,-0.030893,0.022371,0.143701,-0.0479,0.249082
2,-8.2E-05,2E-06,-0.035783,0.019224,1.548818,0.001905,-0.030893,0.022371,0.013848,-0.0479,0.249082,-0.03832
3,2E-06,-0.003107,0.019224,0.123286,1.483024,-0.000431,0.022371,0.013848,-0.027697,0.249082,-0.03832,9.608819
0,5E-06,0.007842,0.092335,-0.045324,1.527917,0.000184,-0.062851,-0.002131,-0.030893,0.105381,0.143701,-0.0479
1,0.007842,-8.2E-05,-0.045324,-0.035783,1.525592,0.000114,-0.002131,-0.030893,0.022371,0.143701,-0.0479,0.249082
2,-8.2E-05,2E-06,-0.035783,0.019224,1.54237,0.001905,-0.030893,0.022371,0.013848,-0.0479,0.249082,-0.03832
3,2E-06,-0.003107,0.019224,0.123286,1.496866,-0.000431,0.022371,0.013848,-0.027697,0.249082,-0.03832,9.608819
0,5E-06,0.007842,0.092335,-0.045324,1.529918,0.000184,-0.062851,-0.002131,-0.030893,0.105381,0.143701,-0.0479
1,0.007842,-8.2E-05,-0.045324,-0.035783,1.52727,0.000114,-0.002131,-0.030893,0.022371,0.143701,-0.0479,0.249082
2,-8.2E-05,2E-06,-0.035783,0.019224,1.531356,0.001905,-0.030893,0.022371,0.013848,-0.0479,0.249082,-0.03832
3,2E-06,-0.003107,0.019224,0.123286,1.512901,-0.000431,0.022371,0.013848,-0.027697,0.249082,-0.03832,9.608819
0,5E-06,0.007842,0.092335,-0.045324,1.532207,0.000184,-0.062851,-0.002131,-0.030893,0.105381,0.143701,-0.0479
1,0.007842,-8.2E-05,-0.045324,-0.035783,1.529666,0.000114,-0.002131,-0.030893,0.022371,0.143701,-0.0479,0.249082
2,-8.2E-05,2E-06,-0.035783,0.019224,1.518246,0.001905,-0.030893,0.022371,0.013848,-0.0479,0.249082,-0.03832
3,2E-06,-0.003107,0.019224,0.123286,1.53192,-0.000431,0.022371,0.013848,-0.027697,0.249082,-0.03832,9.608819
0,5E-06,0.007842,0.092335,-0.045324,1.535395,0.000184,-0.062851,-0.002131,-0.030893,0.105381,0.143701,-0.0479
1,0.007842,-8.2E-05,-0.045324,-0.035783,1.531045,0.000114,-0.002131,-0.030893,0.022371,0.143701,-0.0479,0.249082
2,-8.2E-05,2E-06,-0.035783,0.019224,1.502474,0.001905,-0.030893,0.022371,0.013848,-0.0479,0.249082,-0.03832
3,2E-06,-0.003107,0.019224,0.123286,1.551466,-0.000431,0.022371,0.013848,-0.027697,0.249082,-0.03832,9.608819
0,5E-06,0.007842,0.092335,-0.045324,1.538882,0.000184,-0.062851,-0.002131,-0.030893,0.105381,0.143701,-0.0479
1,0.007842,-8.2E-05,-0.045324,-0.035783,1.533885,0.000114,-0.002131,-0.030893,0.022371,0.143701,-0.0479,0.249082
2,-8.2E-05,2E-06,-0.035783,0.019224,1.486116,0.001905,-0.030893,0.022371,0.013848,-0.0479,0.249082,-0.03832
3,2E-06,-0.003107,0.019224,0.123286,1.570329,-0.000431,0.022371,0.013848,-0.027697,0.249082,-0.03832,9.608819
0,5E-06,0.007842,0.092335,-0.045324,1.540321,0.000184,-0.062851,-0.002131,-0.030893,0.105381,0.143701,-0.0479
1,0.007842,-8.2E-05,-0.045324,-0.035783,1.537037,0.000114,-0.002131,-0.030893,0.022371,0.143701,-0.0479,0.249082
2,-8.2E-05,2E-06,-0.035783,0.019224,1.472562,0.001905,-0.030893,0.022371,0.013848,-0.0479,0.249082,-0.03832
3,2E-06,-0.003107,0.019224,0.123286,1.585921,-0.000431,0.022371,0.013848,-0.027697,0.249082,-0.03832,9.608819
0,5E-06,0.007842,0.092335,-0.045324,1.539961,0.000184,-0.062851,-0.002131,-0.030893,0.105381,0.143701,-0.0479
1,0.007842,-8.2E-05,-0.045324,-0.035783,1.54038,0.000114,-0.002131,-0.030893,0.022371,0.143701,-0.0479,0.249082
2,-8.2E-05,2E-06,-0.035783,0.019224,1.46307,0.001905,-0.030893,0.022371,0.013848,-0.0479,0.249082,-0.03832
3,2E-06,-0.003107,0.019224,0.123286,1.599283,-0.000431,0.022371,0.013848,-0.027697,0.249082,-0.03832,9.608819
0,5E-06,0.007842,0.092335,-0.045324,1.539182,0.000184,-0.062851,-0.002131,-0.030893,0.105381,0.143701,-0.0479
1,0.007842,-8.2E-05,-0.045324,-0.035783,1.544683,0.000114,-0.002131,-0.030893,0.022371,0.143701,-0.0479,0.249082
2,-8.2E-05,2E-06,-0.035783,0.019224,1.458193,0.001905,-0.030893,0.022371,0.013848,-0.0479,0.249082,-0.03832
3,2E-06,-0.003107,0.019224,0.123286,1.609817,-0.000431,0.022371,0.013848,-0.027697,0.249082,-0.03832,9.608819
0,5E-06,0.007842,0.092335,-0.045324,1.539697,0.000184,-0.062851,-0.002131,-0.030893,0.105381,0.143701,-0.0479
1,0.007842,-8.2E-05,-0.045324,-0.035783,1.548637,0.000114,-0.002131,-0.030893,0.022371,0.143701,-0.0479,0.249082
2,-8.2E-05,2E-06,-0.035783,0.019224,1.456227,0.001905,-0.030893,0.022371,0.013848,-0.0479,0.249082,-0.03832
3,2E-06,-0.003107,0.019224,0.123286,1.615306,-0.000431,0.022371,0.013848,-0.027697,0.249082,-0.03832,9.608819
0,5E-06,0.007842,0.092335,-0.045324,1.540189,0.000184,-0.062851,-0.002131,-0.030893,0.105381,0.143701,-0.0479
1,0.007842,-8.2E-05,-0.045324,-0.035783,1.551586,0.000114,-0.002131,-0.030893,0.022371,0.143701,-0.0479,0.249082
2,-8.2E-05,2E-06,-0.035783,0.019224,1.459595,0.001905,-0.030893,0.022371,0.013848,-0.0479,0.249082,-0.03832
3,2E-06,-0.003107,0.019224,0.123286,1.614647,-0.000431,0.022371,0.013848,-0.027697,0.249082,-0.03832,9.608819
0,5E-06,0.007842,0.092335,-0.045324,1.540333,0.000184,-0.062851,-0.002131,-0.030893,0.105381,0.143701,-0.0479
1,0.007842,-8.2E-05,-0.045324,-0.035783,1.55264,0.000114,-0.002131,-0.030893,0.022371,0.143701,-0.0479,0.249082
2,-8.2E-05,2E-06,-0.035783,0.019224,1.470297,0.001905,-0.030893,0.022371,0.013848,-0.0479,0.249082,-0.03832
3,2E-06,-0.003107,0.019224,0.123286,1.608055,-0.000431,0.022371,0.013848,-0.027697,0.249082,-0.03832,9.608819
0,5E-06,0.007842,0.092335,-0.045324,1.540272,0.000184,-0.062851,-0.002131,-0.030893,0.105381,0.143701,-0.0479
1,0.007842,-8.2E-05,-0.045324,-0.035783,1.552485,0.000114,-0.002131,-0.030893,0.022371,0.143701,-0.0479,0.249082
2,-8.2E-05,2E-06,-0.035783,0.019224,1.488836,0.001905,-0.030893,0.022371,0.013848,-0.0479,0.249082,-0.03832
3,2E-06,-0.003107,0.019224,0.123286,1.596287,-0.000431,0.022371,0.013848,-0.027697,0.249082,-0.03832,9.608819
0,5E-06,0.007842,0.092335,-0.045324,1.540033,0.000184,-0.062851,-0.002131,-0.030893,0.105381,0.143701,-0.0479
1,0.007842,-8.2E-05,-0.045324,-0.035783,1.55167,0.000114,-0.002131,-0.030893,0.022371,0.143701,-0.0479,0.249082
2,-8.2E-05,2E-06,-0.035783,0.019224,1.512937,0.001905,-0.030893,0.022371,0.013848,-0.0479,0.249082,-0.03832
3,2E-06,-0.003107,0.019224,0.123286,1.580564,-0.000431,0.022371,0.013848,-0.027697,0.249082,-0.03832,9.608819
0,5E-06,0.007842,0.092335,-0.045324,1.54038,0.000184,-0.062851,-0.002131,-0.030893,0.105381,0.143701,-0.0479
1,0.007842,-8.2E-05,-0.045324,-0.035783,1.549752,0.000114,-0.002131,-0.030893,0.022371,0.143701,-0.0479,0.249082
2,-8.2E-05,2E-06,-0.035783,0.019224,1.538223,0.001905,-0.030893,0.022371,0.013848,-0.0479,0.249082,-0.03832
3,2E-06,-0.003107,0.019224,0.123286,1.562144,-0.000431,0.022371,0.013848,-0.027697,0.249082,-0.03832,9.608819
0,5E-06,0.007842,0.092335,-0.045324,1.54183,0.000184,-0.062851,-0.002131,-0.030893,0.105381,0.143701,-0.0479
1,0.007842,-8.2E-05,-0.045324,-0.035783,1.54799,0.000114,-0.002131,-0.030893,0.022371,0.143701,-0.0479,0.249082
2,-8.2E-05,2E-06,-0.035783,0.019224,1.562911,0.001905,-0.030893,0.022371,0.013848,-0.0479,0.249082,-0.03832
3,2E-06,-0.003107,0.019224,0.123286,1.54231,-0.000431,0.022371,0.013848,-0.027697,0.249082,-0.03832,9.608819
0,5E-06,0.007842,0.092335,-0.045324,1.5434,0.000184,-0.062851,-0.002131,-0.030893,0.105381,0.143701,-0.0479
1,0.007842,-8.2E-05,-0.045324,-0.035783,1.546337,0.000114,-0.002131,-0.030893,0.022371,0.143701,-0.0479,0.249082
2,-8.2E-05,2E-06,-0.035783,0.019224,1.583692,0.001905,-0.030893,0.022371,0.013848,-0.0479,0.249082,-0.03832
3,2E-06,-0.003107,0.019224,0.123286,1.522704,-0.000431,0.022371,0.013848,-0.027697,0.249082,-0.03832,9.608819
0,5E-06,0.007842,0.092335,-0.045324,1.545725,0.000184,-0.062851,-0.002131,-0.030893,0.105381,0.143701,-0.0479
1,0.007842,-8.2E-05,-0.045324,-0.035783,1.545282,0.000114,-0.002131,-0.030893,0.022371,0.143701,-0.0479,0.249082
2,-8.2E-05,2E-06,-0.035783,0.019224,1.601728,0.001905,-0.030893,0.022371,0.013848,-0.0479,0.249082,-0.03832
3,2E-06,-0.003107,0.019224,0.123286,1.506873,-0.000431,0.022371,0.013848,-0.027697,0.249082,-0.03832,9.608819
0,5E-06,0.007842,0.092335,-0.045324,1.548242,0.000184,-0.062851,-0.002131,-0.030893,0.105381,0.143701,-0.0479
1,0.007842,-8.2E-05,-0.045324,-0.035783,1.544827,0.000114,-0.002131,-0.030893,0.022371,0.143701,-0.0479,0.249082
2,-8.2E-05,2E-06,-0.035783,0.019224,1.616025,0.001905,-0.030893,0.022371,0.013848,-0.0479,0.249082,-0.03832
3,2E-06,-0.003107,0.019224,0.123286,1.494002,-0.000431,0.022371,0.013848,-0.027697,0.249082,-0.03832,9.608819
0,5E-06,0.007842,0.092335,-0.045324,1.550435,0.000184,-0.062851,-0.002131,-0.030893,0.105381,0.143701,-0.0479
1,0.007842,-8.2E-05,-0.045324,-0.035783,1.544072,0.000114,-0.002131,-0.030893,0.022371,0.143701,-0.0479,0.249082
2,-8.2E-05,2E-06,-0.035783,0.019224,1.62427,0.001905,-0.030893,0.022371,0.013848,-0.0479,0.249082,-0.03832
3,2E-06,-0.003107,0.019224,0.123286,1.483743,-0.000431,0.022371,0.013848,-0.027697,0.249082,-0.03832,9.608819
